time-since-start [s],position_x [m],position_y [m],position_z [m],velocity_x [m/s],velocity_y [m/s],velocity_z [m/s],acceleration_x [m/s/s],acceleration_y [m/s/s],acceleration_z [m/s/s],rotation_w [quaternion],rotation_x [quaternion],rotation_y [quaternion],rotation_z [quaternion],euler_x [rad],euler_y [rad],euler_z [rad],omega_x [rad/s],omega_y [rad/s],omega_z [rad/s],drone_velocity_x [m/s],drone_velocity_y [m/s],drone_velocity_z [m/s],drone_acceleration_x [m/s/s],drone_acceleration_y [m/s/s],drone_acceleration_z [m/s/s],drone_omega_x [rad],drone_omega_y [rad],drone_omega_z [rad],flipped
0.0,19.2872615814209,-9.421442031860352,1.8157989978790288,-10.939311027526855,-6.265664100646973,0.0758350715041168,8.374336242675781,-4.799323558807374,-13.188261032104492,-0.1533916413379202,-0.4623599105994311,0.2273657602412009,0.8432076425816394,0.8418795466423035,0.7894681135760697,-2.412913084030152,1.9232813119888303,-0.4860586524009706,-0.2718024253845219,8.634687423706055,-4.83470630645752,-7.8157920837402335,-1.3384780883789062,9.931419372558594,-8.637416839599611,1.7365243434906006,0.6105067729949951,0.7884894609451294,1
0.0019671916961634395,19.267348861694337,-9.432796478271484,1.8159362077713024,-10.95223903656006,-6.245147228240968,0.0754684433341034,8.314177513122559,-4.884726524353028,-13.201354026794435,-0.1519449294351513,-0.4622911780213628,0.2284632571899301,0.8432106173766643,0.8432718515396119,0.7897680441485804,-2.4154112339019767,1.9177730083465576,-0.4822015762329103,-0.2923162281513218,8.634085655212402,-4.853246212005615,-7.806643486022949,-1.3684945106506348,9.981207847595217,-8.69947338104248,1.7415846586227417,0.611887514591217,0.767547070980072,1
0.0039608478546178105,19.24741134643555,-9.444114685058594,1.816072821617128,-10.965123176574709,-6.224985599517822,0.0751623734831817,8.253013610839844,-4.762291431427003,-13.325763702392578,-0.1505106362637854,-0.462216232260214,0.2295725273643311,0.8432076598834927,0.8446950316429139,0.7900412718402299,-2.4178781509399414,1.9125477075576784,-0.4783771038055421,-0.3118904232978825,8.633786201477049,-4.871892929077148,-7.797336101531982,-1.3004337549209597,9.87373161315918,-8.708788871765138,1.746391534805298,0.6132733225822449,0.7475443482398987,1
0.0059635639190709355,19.227450942993165,-9.455395698547363,1.8162089586257943,-10.978074073791504,-6.204670429229736,0.0748677626252182,8.24603271484375,-4.678275585174561,-13.241344451904297,-0.1490881044017698,-0.4621354025808733,0.230692621850636,0.8431989806866351,0.8461470007896422,0.7902897039996546,-2.4203155040740967,1.907842040061951,-0.47475004196167,-0.3305448293685917,8.633636474609375,-4.890199661254883,-7.788065433502197,-1.29470956325531,9.834997177124023,-8.752841949462889,1.7511985301971436,0.6146568655967712,0.7286151647567749,1
0.007962942123413086,19.20746765136719,-9.466639518737791,1.816344618797304,-10.99111270904541,-6.184194087982178,0.0745959058403976,8.256806373596191,-4.63940191268921,-13.294203758239744,-0.147676622827665,-0.4620490804721527,0.2318233897275942,0.8431845458025555,0.8476276993751526,0.7905147711383269,-2.42272424697876,1.9033071994781487,-0.4714728295803071,-0.3481323122978214,8.633624076843263,-4.908181190490723,-7.77886438369751,-1.2892926931381226,9.795987129211426,-8.79682731628418,1.7557485103607178,0.6157256960868835,0.7107599377632141,1
0.009963750839233398,19.187459564208982,-9.477846145629885,1.816479802131654,-11.004226684570312,-6.1635589599609375,0.0743405818939216,8.240527153015138,-4.683584213256837,-13.276723861694336,-0.1462755790949367,-0.4619574660800002,0.2329635452872838,0.8431647176326617,0.8491339683532713,0.7907183806048796,-2.4251065254211426,1.899047613143921,-0.4682517349720002,-0.3647816479206089,8.63373851776123,-4.92584753036499,-7.769723892211914,-1.3200243711471558,9.844639778137209,-8.85993480682373,1.7600445747375488,0.6167965531349182,0.6938443183898926,1
0.011957406997680664,19.12729225158692,-9.511237144470217,1.816882729530336,-11.04396629333496,-6.100706577301025,0.0736411511898048,8.251408576965332,-4.818805217742921,-13.645679473876951,-0.1421278052323968,-0.4616520695957406,0.2364386275528496,0.8430740353128641,0.8537993431091309,0.7912104765521448,-2.43211030960083,1.8889708518981927,-0.4593033194541932,-0.4093083739280705,8.634793281555176,-4.977118015289307,-7.742617130279541,-1.2925666570663452,10.005585670471191,-9.204164505004885,1.7724215984344482,0.6203275918960571,0.6491361260414124,1
0.01396489143371582,19.10718879699707,-9.522290229797363,1.817016243934633,-11.05732536315918,-6.0794434547424325,0.0734193846583373,8.285470962524414,-4.861431598663331,-13.70885181427002,-0.1407612516175654,-0.4615406633396616,0.2376131531540708,0.8430340892130175,0.8553977608680724,0.7913396994220183,-2.434403419494629,1.8863924741744995,-0.4567639827728273,-0.4224989116191868,8.635354042053223,-4.993676662445068,-7.733668327331543,-1.3230503797531128,10.052376747131348,-9.269458770751951,1.7764610052108765,0.6213990449905396,0.6361122131347656,1
0.01595711708067782,19.087060546875,-9.533305168151855,1.8171492815017711,-11.070735931396484,-6.058023452758789,0.073200814425946,8.280545234680176,-4.834524154663087,-13.729610443115234,-0.1394017481328846,-0.4614247563949758,0.2387954193738489,0.8429893798200547,0.8570169210433959,0.7914531866656702,-2.4366776943206787,1.8839538097381592,-0.4542433619499208,-0.4349790215492253,8.636007308959961,-5.009986400604248,-7.724764347076416,-1.292611002922058,10.030191421508787,-9.29790210723877,1.7802447080612185,0.6224690675735474,0.6237594485282898,1
0.01795649528503418,19.066907501220705,-9.54428005218506,1.8172821998596205,-11.084440231323242,-6.036367893218994,0.0731170028448112,8.421590805053711,-4.956044197082521,-13.945262908935549,-0.1380474243150205,-0.4613048156850924,0.2399830667684945,0.8429406285914328,0.8586505055427551,0.7915552298175261,-2.438938617706299,1.882770299911499,-0.4524011015892029,-0.444238513708115,8.636722564697267,-5.0260958671569815,-7.716197967529298,-1.3838281631469729,10.145033836364746,-9.401713371276855,1.7835208177566528,0.6235398054122925,0.6148913502693176,1
0.019956350326538086,19.04672775268555,-9.555215835571287,1.8174152374267587,-11.098437309265137,-6.014473915100098,0.0731671154499061,8.244509696960451,-4.9330697059631365,-14.333637237548828,-0.136694876050039,-0.4611819779786158,0.2411745064402644,0.8428882200462234,0.8602942228317262,0.7916520277606414,-2.441193103790283,1.8828346729278564,-0.4512572586536409,-0.4502782523632053,8.637468338012695,-5.042053699493408,-7.707973957061768,-1.189547419548035,10.093406677246094,-9.78256607055664,1.786285638809204,0.6246140003204346,0.6095078587532043,1
0.022052288055419922,19.026523208618165,-9.56611156463623,1.8175486326217656,-11.11257266998291,-5.992891788482666,0.0733682066202171,8.285116195678711,-5.020186424255372,-14.318806648254396,-0.1353424926382594,-0.461055672539043,0.2423685288610823,0.8428330633783586,0.8619427084922789,0.7917450110064901,-2.4434471130371094,1.884580373764038,-0.4500080347061158,-0.4536880254745487,8.638386726379395,-5.058382034301758,-7.699803352355957,-1.3139663934707642,10.180603981018066,-9.909747123718262,1.7887932062149048,0.6266316175460815,0.6070833206176758,1
0.023992061614990234,19.00629196166992,-9.5769681930542,1.8176823854446416,-11.1267671585083,-5.971144199371338,0.0735762715339668,8.138715744018555,-4.860878467559816,-14.606654167175291,-0.1339899008856642,-0.4609263332319065,0.2435640486709527,0.8427752820230631,0.8635938763618467,0.7918360869037078,-2.4457015991210938,1.886216640472412,-0.4486689567565919,-0.4563670456409458,8.639320373535156,-5.0746049880981445,-7.691690921783447,-1.178697943687439,10.04300594329834,-10.100629806518556,1.790793776512146,0.6286526918411255,0.6051955819129944,1
0.026007413864135742,18.98603591918945,-9.58778476715088,1.8178164958953864,-11.14098834991455,-5.949241161346436,0.0737739801406867,8.341433525085451,-4.847891807556153,-14.487421989440918,-0.1326364023806613,-0.4607931183526266,0.2447613030948464,0.8427153679325484,0.8652461171150206,0.7919243017779753,-2.4479596614837646,1.8881962299346924,-0.4467888176441194,-0.4585647583007817,8.64026927947998,-5.090723037719727,-7.683592319488525,-1.3202086687088013,10.080093383789062,-10.011690139770508,1.7925398349761963,0.6313058733940125,0.6037102937698364,1
0.027983903884887695,18.965753173828126,-9.59856128692627,1.817950963974,-11.15523624420166,-5.927182197570801,0.0739611908793456,8.233962059020996,-4.818035125732423,-14.592876434326172,-0.1312824227452688,-0.4606564155732211,0.2459594039815709,0.842653288050545,0.8668983578681946,0.7920106093036097,-2.4502203464508057,1.8901823759078984,-0.4449050724506379,-0.4602787196636204,8.641230583190918,-5.106739521026611,-7.675509929656982,-1.1935982704162598,10.047772407531738,-10.207731246948242,1.7940322160720823,0.6339598298072815,0.6026275157928467,1
0.02998208999633789,18.90475234985352,-9.630647659301758,1.818356037139894,-11.197962760925291,-5.860124111175537,0.0743681192398078,8.286412239074707,-4.985892772674561,-14.537134170532228,-0.127214483251786,-0.4602246551685336,0.2495584953811202,0.8424549242595101,0.8718507289886476,0.7922599951373503,-2.457026958465576,1.8960410356521609,-0.4391758143901825,-0.4636925160884861,8.644180297851562,-5.1541900634765625,-7.651184558868407,-1.3320342302322388,10.216540336608888,-10.219656944274902,1.7974900007247925,0.6419202089309692,0.6007211804389954,1
0.031966447830200195,18.884366607666017,-9.641261100769045,1.8184913396835336,-11.212172508239746,-5.8374857902526855,0.074438855051995,8.278378486633299,-5.069800853729249,-14.935083389282228,-0.1258558938304751,-0.4600740426708319,0.2507589935718867,0.8423847674260643,0.8734987378120422,0.7923420111285613,-2.459305047988892,1.897931337356568,-0.4376011192798616,-0.4643143415451054,8.645170211791992,-5.169816970825195,-7.643031120300293,-1.2295900583267212,10.274834632873535,-10.434391021728516,1.7984737157821655,0.6442579030990601,0.600577712059021,1
0.03398704528807883,18.863954162597658,-9.651833534240724,1.8186267614364635,-11.22635269165039,-5.814709186553955,0.0744705274701125,8.244757652282715,-5.026734352111816,-14.925379753112791,-0.124496187248481,-0.4599201272060335,0.2519596742360327,0.8423125895475204,0.8751450777053833,0.7924235502826141,-2.461587429046631,1.8998221158981323,-0.4360262751579286,-0.464928656816483,8.646160125732424,-5.185349941253662,-7.634842872619629,-1.1975497007369995,10.24844741821289,-10.463974952697754,1.7994561195373535,0.6465944647789001,0.6004342436790466,1
0.035963773727420545,18.84351692199707,-9.66236400604248,1.818762183189393,-11.240492820739746,-5.791797637939452,0.0744575113058097,8.235642433166504,-5.031755447387696,-14.849472999572756,-0.1231352485854768,-0.4597630237166776,0.2531603072121069,0.8422384053407694,0.8767893314361573,0.7925050894366663,-2.463874340057373,1.9015955924987795,-0.4343804419040681,-0.4652856886386874,8.647148132324219,-5.200788021087647,-7.626612186431885,-1.2077786922454834,10.302817344665527,-10.52358341217041,1.8001855611801147,0.6489316821098328,0.6004250645637512,1
0.03797173500061035,18.82305488586425,-9.672852516174316,1.818897485733033,-11.254612922668455,-5.768743991851808,0.0744110420346267,8.292076110839844,-5.12133026123047,-14.733153343200684,-0.1217729578044066,-0.4596029628769056,0.2543609298325944,0.8421620869150036,0.8784319758415221,0.7925871054278777,-2.466165542602539,1.903258204460144,-0.4330428838729858,-0.4655301570892338,8.648129463195799,-5.216132640838623,-7.6183695793151855,-1.314479112625122,10.368972778320312,-10.417569160461426,1.8009127378463743,0.6509516835212708,0.6005502343177795,1
0.03997445106507058,18.802566146850584,-9.683300018310549,1.819032669067384,-11.26857852935791,-5.746103286743164,0.0743635967373855,8.293436050415039,-5.0927162170410165,-14.835944175720217,-0.1204096437245455,-0.4594399693096466,0.2555612013642696,0.8420836684416403,0.8800724744796752,0.7926695982562468,-2.4684605598449707,1.904923796653748,-0.4317046105861664,-0.4657691717147831,8.649251937866211,-5.231865406036377,-7.609839916229247,-1.2736696004867554,10.34921932220459,-10.442273139953612,1.80164098739624,0.6529735922813416,0.6006752252578735,1
0.04197812080384011,18.78205261230469,-9.693706512451172,1.8191677331924447,-11.28250217437744,-5.723328113555907,0.0742714777588851,8.238636016845701,-4.974677085876466,-14.846535682678224,-0.1190448091187174,-0.4592738879319594,0.2567613903873756,0.842003217150678,0.8817108273506165,0.7927525679217742,-2.4707605838775635,1.9064685106277464,-0.4302985668182373,-0.465750098228455,8.650363922119139,-5.247502326965332,-7.601272583007812,-1.1994223594665527,10.242105484008787,-10.441204071044922,1.8021135330200195,0.6549949049949646,0.6009343862533569,1
0.04396700859069824,18.76151428222656,-9.704071044921877,1.819302558898927,-11.296393394470217,-5.7004146575927725,0.0741402804851538,8.214354515075684,-4.931454181671144,-14.80194854736328,-0.1176788535987692,-0.4591049844309096,0.2579609693677586,0.8419206844882836,0.8833465576171875,0.7928364912616175,-2.473064661026001,1.9080159664154053,-0.4288936555385589,-0.4657256305217747,8.651468276977539,-5.263044834136963,-7.592682361602782,-1.1671950817108154,10.215648651123049,-10.470781326293944,1.8025878667831416,0.6570172905921936,0.6011936068534851,1
0.045966863632198596,18.76151428222656,-9.704071044921877,1.819302558898927,-11.296393394470217,-5.7004146575927725,0.0741402804851538,8.214354515075684,-4.931454181671144,-14.80194854736328,-0.1176788535987692,-0.4591049844309096,0.2579609693677586,0.8419206844882836,0.8833465576171875,0.7928364912616175,-2.473064661026001,1.9080159664154053,-0.4288936555385589,-0.4657256305217747,8.651468276977539,-5.263044834136963,-7.592682361602782,-1.1671950817108154,10.215648651123049,-10.470781326293944,1.8025878667831416,0.6570172905921936,0.6011936068534851,1
0.047989845275878906,18.69975433349609,-9.734914779663086,1.8197009563446056,-11.335797309875488,-5.631664276123048,0.0724090635776526,8.175481796264647,-5.042473316192628,-14.499781608581545,-0.1135345901221141,-0.4585921289221836,0.2615363992183928,0.8416661262165067,0.8881796598434447,0.7931631247149871,-2.480087280273437,1.92432713508606,-0.4333856999874116,-0.4432403743267063,8.654237747192383,-5.3098788261413565,-7.564286231994629,-1.152283787727356,10.365705490112305,-10.165074348449709,1.8037394285202024,0.6630725264549255,0.6286606788635254,1
0.04997992515563965,18.67912063598633,-9.745112419128418,1.8198313713073744,-11.34881591796875,-5.608495712280273,0.0717294216156012,8.189921379089355,-5.01818609237671,-14.226730346679688,-0.1121361951613993,-0.4584196956347196,0.2627189086620042,0.8415792484492124,0.8897621035575867,0.7933004538165496,-2.482468605041504,1.9299083948135376,-0.435080111026764,-0.4351315200328831,8.654953002929688,-5.325592517852783,-7.554719924926758,-1.2088781595230105,10.363316535949709,-10.02476692199707,1.803954839706421,0.6650902628898621,0.6384443044662476,1
0.052005052566521215,18.658462142944337,-9.755267143249512,1.8199604749679568,-11.361831665039062,-5.585179328918457,0.0710280835628516,8.151645660400389,-5.154796600341798,-14.55148696899414,-0.1107296821894637,-0.458246515915568,0.2638968501435076,0.8414912480934063,0.8913307189941406,0.7934516111957001,-2.484869241714477,1.9351239204406736,-0.4365594685077668,-0.4272172152996067,8.655569076538086,-5.341343402862549,-7.5451741218566895,-1.1514910459518433,10.488432884216309,-10.280291557312012,1.8039155006408687,0.6671106219291687,0.6478253602981567,1
0.053983211517333984,18.63778076171875,-9.765378952026367,1.820088267326356,-11.374842643737791,-5.561715126037598,0.0703050121665007,8.229450225830076,-5.22789764404297,-14.454608917236328,-0.1093152725487504,-0.4580722947077615,0.2650705787757335,0.8414021228142081,0.8928859829902649,0.7936156431781218,-2.48728895187378,1.9403327703475952,-0.438044399023056,-0.4197790026664738,8.65609073638916,-5.357131004333496,-7.535645484924316,-1.265902042388916,10.554238319396973,-10.18463134765625,1.8041294813156128,0.6691268682479858,0.6568034887313843,1
0.05599641799927113,18.596347427368165,-9.78547477722168,1.8203399181365985,-11.40073299407959,-5.514839172363281,0.068836651742459,8.236011505126951,-5.156804561614991,-14.497286796569824,-0.1064644841932416,-0.4577210667179793,0.2674053366260857,0.8412200215353364,0.8959582448005677,0.7939813772784632,-2.4921810626983643,1.9500250816345213,-0.4405716359615327,-0.4057667553424839,8.656984329223633,-5.389214992523193,-7.5163941383361825,-1.206751585006714,10.496776580810549,-10.25143051147461,1.80430805683136,0.6731671094894409,0.6735519766807556,1
0.05798482894897461,18.575595474243165,-9.795458793640137,1.8204637765884408,-11.41361141204834,-5.491427421569824,0.0680912882089621,8.238918304443361,-5.134588718414308,-14.614431381225586,-0.1050287608549082,-0.4575434781047629,0.2685668173174385,0.8411270948394544,0.8974757194519045,0.7941811720477507,-2.49465274810791,1.954504013061524,-0.4416123926639557,-0.39918926358223,8.65735912322998,-5.405496597290039,-7.506669044494629,-1.1811703443527222,10.464566230773926,-10.287277221679688,1.804268479347229,0.67518550157547,0.6813222169876099,1
0.059979438781741834,18.55482063293457,-9.805399894714355,1.82058620452881,-11.42649269104004,-5.467862129211426,0.0673294886946685,8.195626258850098,-5.055621623992921,-14.450082778930664,-0.1035866370738609,-0.4573646732946629,0.2697244221848909,0.8410327581722494,0.8989814519882202,0.7943919340716765,-2.4971401691436768,1.9587424993515008,-0.4424883723258973,-0.3930553197860721,8.657649993896483,-5.421779632568359,-7.496972560882567,-1.146835446357727,10.43881893157959,-10.317748069763184,1.8042285442352293,0.6772043704986572,0.6885558366775513,1
0.061974287033081055,18.53402099609375,-9.815298080444336,1.8207072019577035,-11.439387321472168,-5.444139003753662,0.0665566474199301,8.147556304931639,-5.162330627441407,-14.574334144592283,-0.102138485101381,-0.4571846935501202,0.2708784346746632,0.8409368344131929,0.9004765152931212,0.7946131865130823,-2.499642133712769,1.96262788772583,-0.4435091912746429,-0.3872774541378025,8.65786075592041,-5.438060760498047,-7.487325191497803,-1.1526597738265991,10.492964744567873,-10.382932662963867,1.804190993309021,0.6789069175720215,0.6953867077827454,1
0.06396698951721191,18.53402099609375,-9.815298080444336,1.8207072019577035,-11.439387321472168,-5.444139003753662,0.0665566474199301,8.147556304931639,-5.162330627441407,-14.574334144592283,-0.102138485101381,-0.4571846935501202,0.2708784346746632,0.8409368344131929,0.9004765152931212,0.7946131865130823,-2.499642133712769,1.96262788772583,-0.4435091912746429,-0.3872774541378025,8.65786075592041,-5.438060760498047,-7.487325191497803,-1.1526597738265991,10.492964744567873,-10.382932662963867,1.804190993309021,0.6789069175720215,0.6953867077827454,1
0.06596350669860129,18.53402099609375,-9.815298080444336,1.8207072019577035,-11.439387321472168,-5.444139003753662,0.0665566474199301,8.147556304931639,-5.162330627441407,-14.574334144592283,-0.102138485101381,-0.4571846935501202,0.2708784346746632,0.8409368344131929,0.9004765152931212,0.7946131865130823,-2.499642133712769,1.96262788772583,-0.4435091912746429,-0.3872774541378025,8.65786075592041,-5.438060760498047,-7.487325191497803,-1.1526597738265991,10.492964744567873,-10.382932662963867,1.804190993309021,0.6789069175720215,0.6953867077827454,1
0.06797075271607156,18.53402099609375,-9.815298080444336,1.8207072019577035,-11.439387321472168,-5.444139003753662,0.0665566474199301,8.147556304931639,-5.162330627441407,-14.574334144592283,-0.102138485101381,-0.4571846935501202,0.2708784346746632,0.8409368344131929,0.9004765152931212,0.7946131865130823,-2.499642133712769,1.96262788772583,-0.4435091912746429,-0.3872774541378025,8.65786075592041,-5.438060760498047,-7.487325191497803,-1.1526597738265991,10.492964744567873,-10.382932662963867,1.804190993309021,0.6789069175720215,0.6953867077827454,1
0.0699694156646693,18.53402099609375,-9.815298080444336,1.8207072019577035,-11.439387321472168,-5.444139003753662,0.0665566474199301,8.147556304931639,-5.162330627441407,-14.574334144592283,-0.102138485101381,-0.4571846935501202,0.2708784346746632,0.8409368344131929,0.9004765152931212,0.7946131865130823,-2.499642133712769,1.96262788772583,-0.4435091912746429,-0.3872774541378025,8.65786075592041,-5.438060760498047,-7.487325191497803,-1.1526597738265991,10.492964744567873,-10.382932662963867,1.804190993309021,0.6789069175720215,0.6953867077827454,1
0.07196545600891113,18.53402099609375,-9.815298080444336,1.8207072019577035,-11.439387321472168,-5.444139003753662,0.0665566474199301,8.147556304931639,-5.162330627441407,-14.574334144592283,-0.102138485101381,-0.4571846935501202,0.2708784346746632,0.8409368344131929,0.9004765152931212,0.7946131865130823,-2.499642133712769,1.96262788772583,-0.4435091912746429,-0.3872774541378025,8.65786075592041,-5.438060760498047,-7.487325191497803,-1.1526597738265991,10.492964744567873,-10.382932662963867,1.804190993309021,0.6789069175720215,0.6953867077827454,1
0.07402873039245605,18.471484756469728,-9.844732284545898,1.8210608959198007,-11.477733612060549,-5.372203350067139,0.0639544427394873,8.183568954467772,-5.270813465118409,-14.67435073852539,-0.0977567670147797,-0.4566378364443519,0.2743180130923155,0.8406397138627958,0.9048947095870972,0.7953417936908167,-2.507238388061523,1.9748331308364868,-0.4472019374370576,-0.3688433170318608,8.657993316650389,-5.4869232177734375,-7.458178520202638,-1.2186787128448486,10.603883743286133,-10.37743854522705,1.804076552391052,0.6840167641639711,0.7172199487686157,1
0.07597231864928133,18.450593566894533,-9.854455947875977,1.8211754560470592,-11.490458488464355,-5.3479437828063965,0.0630232691764838,8.27833366394043,-5.256398677825929,-14.703753471374512,-0.0962838542145128,-0.4564532082932257,0.2754566392462393,0.8405376421978891,0.9063439965248108,0.7956064383136194,-2.5098009109497066,1.978573203086853,-0.4482589364051819,-0.3628144264221196,8.657867431640625,-5.503216743469238,-7.448468208312987,-1.214354157447815,10.664380073547363,-10.439361572265623,1.8037837743759155,0.6857205629348755,0.7241843342781067,1
0.07799029350280406,18.429679489135747,-9.864134788513184,1.821288347244264,-11.503172874450684,-5.323535442352295,0.0620701238512999,8.244558334350586,-5.367924690246583,-14.786401748657228,-0.0948050993213508,-0.4562674783308074,0.276591610826799,0.8404338535426519,0.9077826738357546,0.7958815733539031,-2.5123775005340576,1.9823156595230105,-0.4492960572242737,-0.3572611510753636,8.657665252685549,-5.519505500793457,-7.438783645629883,-1.2267324924468994,10.711370468139648,-10.51216983795166,1.8037470579147337,0.6874229311943054,0.7307459712028503,1
0.07997608184815164,18.429679489135747,-9.864134788513184,1.821288347244264,-11.503172874450684,-5.323535442352295,0.0620701238512999,8.244558334350586,-5.367924690246583,-14.786401748657228,-0.0948050993213508,-0.4562674783308074,0.276591610826799,0.8404338535426519,0.9077826738357546,0.7958815733539031,-2.5123775005340576,1.9823156595230105,-0.4492960572242737,-0.3572611510753636,8.657665252685549,-5.519505500793457,-7.438783645629883,-1.2267324924468994,10.711370468139648,-10.51216983795166,1.8037470579147337,0.6874229311943054,0.7307459712028503,1
0.08196783065795898,18.38777885437012,-9.8833589553833,1.821508765220643,-11.528587341308596,-5.274261474609375,0.0601085200905806,8.18752384185791,-5.4553871154785165,-15.085211753845217,-0.0918316023651109,-0.4558926050550342,0.2788509912782921,0.840220812719076,0.9106301069259642,0.7964614073382776,-2.517569303512573,1.988850474357605,-0.4514963626861573,-0.3468404412269596,8.657020568847656,-5.552038192749023,-7.419536113739014,-1.1238549947738647,10.798583984375,-10.806072235107422,1.803416967391968,0.690197765827179,0.7429298758506775,1
0.0839612483978307,18.36679420471192,-9.892904281616213,1.821616291999818,-11.54116439819336,-5.249971866607666,0.0591415017843253,8.126276016235353,-5.325718879699708,-15.04183578491211,-0.0903376795714035,-0.4557031678169285,0.2799756299102549,0.8401115242321263,0.9120394587516784,0.7967646757708953,-2.520183086395264,1.991758823394776,-0.4523453414440156,-0.3420533239841465,8.656721115112305,-5.568756103515625,-7.409667015075684,-1.0478676557540894,10.691762924194336,-10.800355911254885,1.8031237125396729,0.6915831565856934,0.7484180927276611,1
0.08596277236938477,18.345786666870115,-9.90240478515625,1.821722030639649,-11.553728103637695,-5.225532531738281,0.0581523627042776,8.1646728515625,-5.390220642089845,-14.93568229675293,-0.0888390971238921,-0.4555126404973723,0.2810970971462287,0.8400001613959885,0.9134402871131898,0.7970770041095179,-2.5228078365325928,1.9946770668029783,-0.4531567990779878,-0.3377405703067783,8.656353950500487,-5.585444450378418,-7.399827480316162,-1.168025255203247,10.757686614990234,-10.717522621154783,1.8030872344970703,0.6929743885993958,0.753503680229187,1
0.08796000480651855,18.324756240844728,-9.911861419677734,1.8218258619308485,-11.56626796722412,-5.200948715209961,0.0571357347071177,8.095493316650389,-5.150870800018311,-14.82238483428955,-0.0873359872095002,-0.4553204892275006,0.282215972241531,0.8398867914424771,0.9148331284523008,0.7973969618426722,-2.52544379234314,1.997475028038025,-0.4538826942443849,-0.3336474895477299,8.655917167663574,-5.60209846496582,-7.3900041580200195,-1.05345356464386,10.57203483581543,-10.673198699951172,1.8030503988265991,0.6943630576133728,0.7583206295967102,1
0.08998751640319824,18.303704833984376,-9.921272277832031,1.8219279050827035,-11.57878303527832,-5.176220417022705,0.0560916028916842,8.237131118774414,-5.334539890289308,-14.806074142456056,-0.0858289747769289,-0.4551268608079002,0.2833317603971971,0.8397714220013163,0.9162174463272096,0.7977245489703582,-2.528089761734009,2.000152826309204,-0.4545203745365144,-0.3297727406024937,8.655418395996094,-5.618715286254883,-7.380197525024414,-1.2123754024505615,10.7188720703125,-10.629265785217283,1.8030126094818115,0.6957497596740723,0.7628690600395203,1
0.09198641777038574,18.24041328430176,-9.949233055114746,1.8222219944000253,-11.616204261779783,-5.101151943206787,0.0528099909424788,8.142502784729004,-5.383305072784425,-15.135863304138184,-0.0812864930632342,-0.4545355796339646,0.2866630875436071,0.8394130015268187,0.9203240275382996,0.7987468878375457,-2.536084175109864,2.0067706108093257,-0.455410897731781,-0.3193482458591465,8.653569221496582,-5.668262481689452,-7.350934982299805,-1.0498734712600708,10.786354064941406,-10.947259902954102,1.8021398782730105,0.6999151706695557,0.7745019793510437,1
0.0939784049987793,18.219270324707036,-9.95846176147461,1.8223159313201915,-11.628634452819824,-5.07583475112915,0.0516663417220121,8.133312225341799,-5.4371280670166025,-15.17815113067627,-0.0797657939053758,-0.4543352899672782,0.2877682288855404,0.8392891687952809,0.9216784834861756,0.7991007010089328,-2.5387659072875977,2.0086233615875244,-0.4558328986167909,-0.3162369728088383,8.65284252166748,-5.6846675872802725,-7.341239929199219,-1.0586889982223509,10.83087921142578,-11.023338317871094,1.8018481731414795,0.7009862065315247,0.7779769301414491,1
0.09595966339112394,18.198104476928712,-9.967644691467283,1.8224077224731448,-11.641036987304688,-5.05037260055542,0.0504951402544981,8.100565910339355,-5.4071998596191415,-15.203561782836914,-0.0782421979526988,-0.4541332158318404,0.2888708948962856,0.8391631467239138,0.9230260848999026,0.7994602362262171,-2.541455507278442,2.010364055633545,-0.4561559259891511,-0.3133441507816319,8.652060508728027,-5.701010227203369,-7.33157205581665,-1.0120155811309814,10.80955410003662,-11.049978256225586,1.801559805870056,0.7020604014396667,0.7811834812164307,1
0.09795832633971813,18.1769157409668,-9.976780891418455,1.8224973678588885,-11.65341091156006,-5.024765968322754,0.049296379089356,8.145770072937013,-5.441915512084962,-15.23337459564209,-0.0767159740306334,-0.4539297809624853,0.2899710639660853,0.8390346806576339,0.9243677854537964,0.7998259703265593,-2.544151544570924,2.0119876861572266,-0.4563810825347902,-0.3106675446033481,8.651226997375487,-5.717288017272949,-7.321930408477782,-1.0201772451400757,10.853560447692873,-11.126689910888672,1.8012704849243164,0.7031323313713074,0.7841218113899231,1
0.09998512268067117,18.155706024169923,-9.985870361328123,1.8225848674774183,-11.665865898132324,-4.99895715713501,0.0481276586651808,8.215981483459473,-5.553065299987794,-15.164053916931152,-0.0751884446925874,-0.4537236221863112,0.2910697918582541,0.8389040163942689,0.9257046580314636,0.8001936117755335,-2.546852827072144,2.0129425525665283,-0.4555153548717499,-0.3095700144767765,8.650369644165039,-5.7334699630737305,-7.3124494552612305,-1.1302651166915894,10.930481910705566,-11.044022560119627,1.8009819984436035,0.7045246958732605,0.7850474119186401,1
0.101959228515625,18.13447341918945,-9.994913101196287,1.822670221328737,-11.678125381469728,-4.973620891571045,0.0469481945037847,8.198034286499022,-5.558875560760499,-15.217968940734863,-0.0736599443473479,-0.4535147400825272,0.2921665958099733,0.8387712879083516,0.9270356893539428,0.8005631605731409,-2.5495591163635254,2.013888120651245,-0.4542988538742066,-0.3082784414291385,8.649619102478027,-5.750041961669923,-7.302602291107178,-1.1378355026245115,10.974536895751951,-11.121883392333984,1.800438404083252,0.7062296271324158,0.7859730124473572,1
0.10393929481507058,18.113217926025392,-10.003910064697266,1.822753429412843,-11.69034481048584,-4.948145389556885,0.0457359142601496,8.175105094909668,-5.427845478057862,-15.24555492401123,-0.0721301557581537,-0.4533030898953572,0.2932618053729564,0.838636430660522,0.9283614158630372,0.8009346167193816,-2.5522708892822266,2.0145926475524902,-0.4529331028461456,-0.3069420754909519,8.64885139465332,-5.766509532928468,-7.292762756347656,-1.0706448554992676,10.86109447479248,-11.118175506591797,1.799639344215393,0.7079324722290039,0.7867644429206848,1
0.1059424877166748,18.09194145202637,-10.012860298156738,1.822834253311158,-11.702502250671388,-4.922540664672852,0.0444804765284067,8.045328140258789,-5.381555080413818,-15.122323989868164,-0.0705995447505914,-0.4530884968669815,0.2943550096513147,0.8384996401794117,0.9296807646751404,0.8013075033770959,-2.554987907409668,2.015418529510498,-0.4512564539909363,-0.3056624829769138,8.648063659667969,-5.782866477966309,-7.282902717590332,-1.023493766784668,10.839582443237305,-11.145000457763672,1.79884135723114,0.7099526524543762,0.7874216437339783,1
0.10798168182373047,18.07064208984375,-10.021763801574709,1.8229128122329723,-11.714608192443848,-4.8968024253845215,0.0431872121989733,8.095745086669924,-5.343232631683351,-15.291017532348633,-0.0690679260922105,-0.4528707378041984,0.2954466089541479,0.8383609113523225,0.9309942126274108,0.8016813437091272,-2.5577106475830083,2.01624608039856,-0.4495834112167359,-0.3043761551380161,8.647260665893555,-5.799116134643555,-7.273035526275635,-0.9849153161048888,10.811239242553713,-11.176692962646484,1.798044204711914,0.7119753360748291,0.7880788445472717,1
0.10997176170349121,18.00661430358887,-10.048190116882324,1.8231335878372208,-11.750658988952637,-4.818758487701416,0.0391074605286127,8.131839752197267,-5.563369274139403,-15.238502502441404,-0.0644686773088071,-0.452199039708882,0.2987100120978392,0.8379332591590614,0.9348968267440796,0.8028090635882781,-2.5659103393554688,2.0182633399963383,-0.4442113637924194,-0.3008659183979038,8.644768714904785,-5.8471879959106445,-7.243462085723878,-1.0640274286270142,11.011252403259276,-11.230463981628418,1.7953983545303345,0.7180355191230774,0.7893792986869812,1
0.11196660995483398,17.985227203369142,-10.056903839111328,1.8232021331787125,-11.762581825256348,-4.79246997833252,0.0376795008778578,8.032766342163086,-5.487632751464845,-15.481182098388672,-0.0629341756796758,-0.4519689605330534,0.2997942845052992,0.837786807740577,0.9361857771873474,0.8031867186175745,-2.5686538219451904,2.0187413692474365,-0.4422871172428132,-0.2997259497642521,8.643914222717285,-5.862983226776122,-7.233613014221191,-0.92135089635849,10.944217681884766,-11.420584678649902,1.7943484783172607,0.7200561761856079,0.7896339893341064,1
0.11396598815917969,17.963819122314455,-10.065568923950195,1.8232679367065443,-11.774449348449709,-4.766048431396484,0.0362142771482473,8.134000778198242,-5.636936187744143,-15.29579734802246,-0.061399201814657,-0.4517356615342946,0.3008766876179481,0.8376384953921041,0.9374684095382688,0.8035648504840296,-2.571402311325073,2.019219160079956,-0.4403659105300903,-0.2985776662826542,8.643048286437987,-5.878661155700684,-7.223761558532715,-1.0490821599960327,11.116894721984863,-11.376219749450684,1.7932969331741333,0.7220779657363892,0.7898884415626526,1
0.1159596443176305,17.942390060424806,-10.074186325073242,1.8233309984207169,-11.786261558532717,-4.739494323730469,0.0347119159996515,8.118527412414549,-5.633660316467286,-15.435455322265623,-0.0598639217131394,-0.4514991281626943,0.3019569168661326,0.8374884288765723,0.9387440085411072,0.8039434591876429,-2.5741558074951167,2.0196971893310547,-0.4384500682353973,-0.29742243885994,8.642173767089844,-5.894223690032959,-7.213909149169923,-1.009496569633484,11.087971687316896,-11.408821105957031,1.7922462224960327,0.7240990400314331,0.7901429533958435,1
0.11796069145202992,17.920940017700197,-10.082755088806152,1.8233913183212287,-11.79802703857422,-4.712801933288574,0.0331776626408105,8.156169891357424,-5.672926902770997,-15.182272911071776,-0.0583278151393067,-0.4512594367479386,0.3030359405850232,0.8373362558976879,0.9400148987770082,0.8043225447284148,-2.5769143104553223,2.0203003883361816,-0.4365750551223755,-0.296514600515366,8.641290664672853,-5.909671306610107,-7.204065799713135,-1.1095292568206787,11.177275657653809,-11.327974319458008,1.7914484739303589,0.7261166572570801,0.790263295173645,1
0.1199557781219518,17.899467086791994,-10.091276168823242,1.8234488964080824,-11.809590339660645,-4.686569690704347,0.0316507555544382,8.023412704467772,-5.5388007164001465,-15.443341255187988,-0.0567914765760412,-0.4510166139213489,0.3041129222733377,0.837182221897721,0.9412793517112732,0.8047021071063445,-2.5796773433685303,2.020669460296631,-0.4345453679561616,-0.2955567240715031,8.640499114990233,-5.92547607421875,-7.193854331970215,-0.9301799535751344,11.029708862304688,-11.47357177734375,1.7903980016708374,0.7281389236450195,0.7902493476867676,1
0.12195944786071777,17.877975082397462,-10.099749565124512,1.8235036134719864,-11.821106910705565,-4.6601996421813965,0.0300921611487871,8.044583320617676,-5.555917263031007,-15.26996898651123,-0.0552546362024506,-0.4507709114992038,0.30518818261735,0.8370260950024383,0.9425384998321532,0.8050826231585901,-2.582444667816162,2.0209171772003174,-0.4328352212905884,-0.2945413589477543,8.639694213867188,-5.941161632537843,-7.1836585998535165,-1.0034017562866209,11.035497665405272,-11.354124069213867,1.7893471717834473,0.7298461198806763,0.7903696894645691,1
0.12400436401367188,17.856462097167974,-10.108174324035645,1.823555469512941,-11.832565307617188,-4.633697986602783,0.0284968893975025,8.033031463623049,-5.503195762634278,-15.284518241882324,-0.0537178774864557,-0.4505219906801878,0.3062614035487399,0.8368681367146599,0.9437912702560426,0.8054631392108362,-2.5852160453796387,2.0211620330810547,-0.4311319291591644,-0.2935196459293369,8.638874053955076,-5.956727504730225,-7.173464775085449,-0.963787078857422,11.006683349609377,-11.386374473571776,1.7882953882217407,0.7315494418144226,0.7904903292655945,1
0.12600350379944203,17.856462097167974,-10.108174324035645,1.823555469512941,-11.832565307617188,-4.633697986602783,0.0284968893975025,8.033031463623049,-5.503195762634278,-15.284518241882324,-0.0537178774864557,-0.4505219906801878,0.3062614035487399,0.8368681367146599,0.9437912702560426,0.8054631392108362,-2.5852160453796387,2.0211620330810547,-0.4311319291591644,-0.2935196459293369,8.638874053955076,-5.956727504730225,-7.173464775085449,-0.963787078857422,11.006683349609377,-11.386374473571776,1.7882953882217407,0.7315494418144226,0.7904903292655945,1
0.12794184684753418,17.791801071166994,-10.133159637451172,1.82369101047516,-11.86559772491455,-4.553992748260498,0.0229809731245046,7.979120254516602,-5.6194119453430185,-15.192907333374023,-0.0491279106977588,-0.4497500473238312,0.3094827633733154,0.8363801542943862,0.9475516676902772,0.8065665403949187,-2.593508243560791,2.015576362609864,-0.4192188382148744,-0.3023891746997837,8.636645317077638,-6.0022239685058585,-7.1416544914245605,-0.9067519903182985,11.101888656616213,-11.328659057617188,1.7851485013961792,0.7363440990447998,0.77569180727005,1
0.1299901008605957,17.770207977294923,-10.141390800476074,1.8237292766571056,-11.876505851745604,-4.527154922485352,0.0210788547992711,8.098537445068361,-5.694831371307372,-15.112202644348145,-0.0476049647577642,-0.4494842011682144,0.3105567746288983,0.8362130170971269,0.9488049149513244,0.8069213072406218,-2.5962650775909424,2.013874053955078,-0.4152457416057587,-0.3051238358020786,8.635976791381836,-6.016995429992676,-7.131086826324463,-1.0068316459655762,11.195375442504885,-11.251708030700684,1.784100890159607,0.7380479574203491,0.7709827423095703,1
0.13199949264527078,17.748593902587892,-10.14957332611084,1.8237640857696544,-11.887373924255373,-4.500175952911377,0.0191510152071719,7.951847553253173,-5.635730266571046,-15.320878028869627,-0.0460851404318141,-0.4492142159348876,0.3116305679204034,0.8360437411828348,0.9500571489334108,0.8072703520404261,-2.599019289016724,2.0122838020324707,-0.4113884568214417,-0.30763453245163,8.635346412658691,-6.0315775871276855,-7.120551586151122,-0.8535861968994141,11.127951622009276,-11.434404373168944,1.7830519676208496,0.7397526502609253,0.7665421962738037,1
0.13398241996765137,17.72696075439453,-10.157706260681152,1.8237953186035167,-11.89819049835205,-4.473061561584473,0.0171925053000455,8.083402633666992,-5.776170730590821,-15.362486839294435,-0.0445682757703336,-0.4489404201329398,0.312704526139348,0.8358720280627202,0.9513099193572996,0.8076141516314901,-2.601770162582397,2.0105748176574707,-0.4078392386436463,-0.310092389583588,8.634746551513674,-6.045971393585205,-7.1100406646728525,-0.95354562997818,11.222149848937988,-11.358617782592772,1.7820041179656982,0.7411412000656128,0.7622361183166504,1
0.13597536087036133,17.68363723754883,-10.173824310302734,1.8238470554351824,-11.919564247131348,-4.418994903564453,0.013222405686975,8.088738441467285,-5.814276218414308,-15.287912368774414,-0.0415436291170713,-0.4483802432246896,0.3148516569332227,0.8355224224950253,0.9538116455078124,0.8082845846759246,-2.6072652339935303,2.0077376365661617,-0.4004653096199037,-0.3144233226776127,8.633750915527344,-6.0746588706970215,-7.088741779327393,-1.0314092636108398,11.27536964416504,-11.326637268066404,1.7799065113067627,0.7445503473281859,0.754160463809967,1
0.13797187805176137,17.661946868896486,-10.181809425354004,1.823867440223695,-11.930130004882812,-4.39203691482544,0.0112159699201589,8.102258682250978,-5.711040496826175,-15.218635559082031,-0.0400351760956729,-0.4480942925140629,0.3159247395151556,0.8353443892512781,0.9550607204437256,0.8086126486407679,-2.6100101470947266,2.0064864158630367,-0.3969620466232301,-0.3162584900856022,8.63335132598877,-6.088961124420166,-7.0779643058776855,-0.9919732809066772,11.24683952331543,-11.359633445739744,1.7788586616516109,0.7462550401687622,0.750525176525116,1
0.1399707794189453,17.640237426757814,-10.189745903015137,1.8238841295242323,-11.94064235687256,-4.3649444580078125,0.0091791879385715,7.991294860839843,-5.617110729217528,-15.13724136352539,-0.0385291452395085,-0.4478046054071462,0.3169974371290694,0.8351641546407895,0.956308662891388,0.8089364210711882,-2.612753391265869,2.0051145553588867,-0.3937677443027496,-0.3180455267429356,8.632973670959473,-6.103087902069093,-7.06721305847168,-0.9190910458564758,11.141642570495604,-11.34488296508789,1.7778105735778809,0.7476453185081482,0.7470241785049438,1
0.14198875427246094,17.618508911132814,-10.197632789611816,1.823897123336793,-11.951109886169435,-4.3377113342285165,0.0071170995943253,8.05621337890625,-5.655388832092286,-15.32167911529541,-0.0370257483758205,-0.4475112158563251,0.3180694879926199,0.8349818000699875,0.9575549960136416,0.8092559019671843,-2.615494728088379,2.0038535594940186,-0.3906989693641664,-0.3196150064468388,8.632614135742188,-6.117044448852539,-7.056499481201173,-0.913202464580536,11.189356803894045,-11.42516040802002,1.7767632007598877,0.7490361332893372,0.7437915205955505,1
0.14398622512817383,17.618508911132814,-10.197632789611816,1.823897123336793,-11.951109886169435,-4.3377113342285165,0.0071170995943253,8.05621337890625,-5.655388832092286,-15.32167911529541,-0.0370257483758205,-0.4475112158563251,0.3180694879926199,0.8349818000699875,0.9575549960136416,0.8092559019671843,-2.615494728088379,2.0038535594940186,-0.3906989693641664,-0.3196150064468388,8.632614135742188,-6.117044448852539,-7.056499481201173,-0.913202464580536,11.189356803894045,-11.42516040802002,1.7767632007598877,0.7490361332893372,0.7437915205955505,1
0.14596629142761586,17.618508911132814,-10.197632789611816,1.823897123336793,-11.951109886169435,-4.3377113342285165,0.0071170995943253,8.05621337890625,-5.655388832092286,-15.32167911529541,-0.0370257483758205,-0.4475112158563251,0.3180694879926199,0.8349818000699875,0.9575549960136416,0.8092559019671843,-2.615494728088379,2.0038535594940186,-0.3906989693641664,-0.3196150064468388,8.632614135742188,-6.117044448852539,-7.056499481201173,-0.913202464580536,11.189356803894045,-11.42516040802002,1.7767632007598877,0.7490361332893372,0.7437915205955505,1
0.14795827865599875,17.618508911132814,-10.197632789611816,1.823897123336793,-11.951109886169435,-4.3377113342285165,0.0071170995943253,8.05621337890625,-5.655388832092286,-15.32167911529541,-0.0370257483758205,-0.4475112158563251,0.3180694879926199,0.8349818000699875,0.9575549960136416,0.8092559019671843,-2.615494728088379,2.0038535594940186,-0.3906989693641664,-0.3196150064468388,8.632614135742188,-6.117044448852539,-7.056499481201173,-0.913202464580536,11.189356803894045,-11.42516040802002,1.7767632007598877,0.7490361332893372,0.7437915205955505,1
0.1499624252319336,17.618508911132814,-10.197632789611816,1.823897123336793,-11.951109886169435,-4.3377113342285165,0.0071170995943253,8.05621337890625,-5.655388832092286,-15.32167911529541,-0.0370257483758205,-0.4475112158563251,0.3180694879926199,0.8349818000699875,0.9575549960136416,0.8092559019671843,-2.615494728088379,2.0038535594940186,-0.3906989693641664,-0.3196150064468388,8.632614135742188,-6.117044448852539,-7.056499481201173,-0.913202464580536,11.189356803894045,-11.42516040802002,1.7767632007598877,0.7490361332893372,0.7437915205955505,1
0.1519932746887207,17.618508911132814,-10.197632789611816,1.823897123336793,-11.951109886169435,-4.3377113342285165,0.0071170995943253,8.05621337890625,-5.655388832092286,-15.32167911529541,-0.0370257483758205,-0.4475112158563251,0.3180694879926199,0.8349818000699875,0.9575549960136416,0.8092559019671843,-2.615494728088379,2.0038535594940186,-0.3906989693641664,-0.3196150064468388,8.632614135742188,-6.117044448852539,-7.056499481201173,-0.913202464580536,11.189356803894045,-11.42516040802002,1.7767632007598877,0.7490361332893372,0.7437915205955505,1
0.15396475791931152,17.55320892333985,-10.220993995666504,1.8239128589630145,-11.982144355773926,-4.255233287811278,0.0007300786674027,7.924882411956786,-5.751234054565432,-15.421208381652832,-0.0325283836542997,-0.4466107997497371,0.3212817834181488,0.8344211846827672,0.9612860679626466,0.8101947943316863,-2.623709917068481,1.9996775388717647,-0.3821854591369629,-0.3234797418117527,8.631624221801758,-6.157910346984862,-7.024491786956787,-0.8434572219848633,11.267851829528809,-11.610304832458494,1.7731077671051023,0.7525746822357178,0.7348992228507996,1
0.15597867965698242,17.53140411376953,-10.228680610656738,1.8239101171493544,-11.992342948913574,-4.22749662399292,-0.0014770911075169,7.986013412475585,-5.774978160858152,-15.563912391662598,-0.0310338597164482,-0.4463037980210452,0.3223500746383657,0.8342303331836657,0.962523937225342,0.8105014006244109,-2.6264462471008296,1.9981377124786377,-0.3791722655296326,-0.324036151170731,8.631319046020508,-6.171195030212402,-7.013853549957275,-0.8277744054794312,11.321066856384276,-11.687251091003418,1.7712953090667725,0.7539631128311157,0.7323378920555115,1
0.15802788734436035,17.50958213806153,-10.236316680908203,1.8239033222198504,-12.00246524810791,-4.199639797210693,-0.0037239389494056,8.097439765930176,-5.833339214324952,-15.417449951171877,-0.0295413796429143,-0.4459937858119044,0.3234165913092874,0.8340375041758252,0.9637580513954164,0.8108060995685022,-2.6291818618774414,1.9964693784713743,-0.3761380910873413,-0.3243279457092289,8.631025314331055,-6.184310436248777,-7.003231048583984,-0.9034318923950196,11.337294578552244,-11.573272705078123,1.769229292869568,0.7553520798683167,0.7299107313156128,1
0.1600012779235911,17.48774108886719,-10.243901252746582,1.8238923549652115,-12.012520790100098,-4.171656608581543,-0.0060054040513927,8.053088188171388,-5.993620395660401,-15.50461483001709,-0.0280511267640156,-0.4456801189449025,0.3244815367084724,0.833842969749002,0.9649878740310666,0.8111074606524871,-2.6319174766540527,1.9948012828826904,-0.3731033802032472,-0.3246098160743717,8.630744934082031,-6.197257995605469,-6.992638111114503,-0.9197062253952026,11.466307640075684,-11.700685501098633,1.7671623229980469,0.7567389011383057,0.7274836301803589,1
0.16196107864379883,17.444005584716795,-10.258918762207031,1.823857903480531,-12.03231716156006,-4.115946769714356,-0.0106257349252695,8.004188537597656,-5.891032218933106,-15.60644245147705,-0.0250768403158741,-0.4450435956867533,0.3266052806772394,0.8334484631047798,0.9674337506294252,0.8117044607745583,-2.637387752532959,1.9911868572235107,-0.3674527704715729,-0.324403822422028,8.630311012268066,-6.2231502532958975,-6.971166133880615,-0.8398160934448242,11.406991958618164,-11.767054557800291,1.7625199556350708,0.7591979503631592,0.7233004570007324,1
0.16397428512573597,17.422111129760744,-10.266351699829102,1.8238343000412,-12.042065620422363,-4.08821439743042,-0.0129594653844828,8.063777923583983,-5.852179527282716,-15.463926315307615,-0.0235926282848344,-0.4447206824849861,0.3276641488701979,0.8332485271549364,0.968649744987488,0.8120000998126433,-2.640122890472412,1.989370822906494,-0.364856243133545,-0.3241747021675114,8.630156517028809,-6.236099720001223,-6.960296630859375,-0.8840678334236145,11.35027313232422,-11.603986740112305,1.7601991891860962,0.7602683901786804,0.7214100956916809,1
0.16597247123717906,17.400199508666994,-10.273734092712402,1.8238064050674447,-12.05175495147705,-4.060350418090819,-0.0153224226087326,7.976797103881835,-5.81983518600464,-15.391968727111816,-0.0221103265161966,-0.4443945965052496,0.32872083126895,0.8330469321401609,0.9698604345321656,0.8122938315020959,-2.6428585052490234,1.987789273262024,-0.3620812296867371,-0.3237563669681553,8.630005836486816,-6.248887538909912,-6.949472427368164,-0.8444345593452454,11.321081161499023,-11.63673210144043,1.7578793764114382,0.7616567015647888,0.7196539044380188,1
0.16796970367431996,17.400199508666994,-10.273734092712402,1.8238064050674447,-12.05175495147705,-4.060350418090819,-0.0153224226087326,7.976797103881835,-5.81983518600464,-15.391968727111816,-0.0221103265161966,-0.4443945965052496,0.32872083126895,0.8330469321401609,0.9698604345321656,0.8122938315020959,-2.6428585052490234,1.987789273262024,-0.3620812296867371,-0.3237563669681553,8.630005836486816,-6.248887538909912,-6.949472427368164,-0.8444345593452454,11.321081161499023,-11.63673210144043,1.7578793764114382,0.7616567015647888,0.7196539044380188,1
0.1699509620666504,17.334355926513673,-10.295575141906738,1.82369649410248,-12.080452919006348,-3.975980043411255,-0.0225902758538718,7.909354209899901,-5.894349098205567,-15.697612762451172,-0.017673514232269,-0.4433992372884559,0.3318773250419313,0.8324315013199041,0.9734620451927184,0.8131683508502396,-2.6510679721832275,1.9827724695205688,-0.3548578023910523,-0.3221859633922581,8.629539489746094,-6.286304950714111,-6.917293071746826,-0.7790576815605164,11.389496803283691,-11.832453727722168,1.7509169578552246,0.7648717761039734,0.7150565385818481,1
0.17197346687317605,17.31237373352051,-10.302752494812012,1.8236509561538707,-12.089890480041506,-3.9476003646850586,-0.0250737760215992,8.059017181396483,-5.930545806884768,-15.557538032531738,-0.016197822632848,-0.4430619934115237,0.3329246894526117,0.8322228377598418,0.9746519923210146,0.8134582678424285,-2.653805494308472,1.9811697006225584,-0.3525488078594208,-0.3215129971504215,8.629379272460938,-6.298470497131348,-6.906662464141848,-0.8867022395133972,11.485956192016602,-11.77305030822754,1.7485953569412231,0.7659415006637573,0.713702917098999,1
0.17397642135620117,17.290374374389653,-10.3098783493042,1.8236007690429696,-12.099266052246096,-3.919090747833252,-0.0275859143584961,7.9523983001708975,-5.967145919799807,-15.662745475769045,-0.0147236053484346,-0.4427221676438304,0.3339697474819072,0.8320123229190556,0.9758370518684388,0.8137477079974573,-2.656543493270874,1.979443311691284,-0.3505567312240601,-0.3208165466785435,8.629205703735353,-6.310483932495117,-6.896090030670166,-0.8379515409469604,11.463322639465332,-11.801422119140623,1.746274709701538,0.7666993141174316,0.7124836444854736,1
0.17596888542174938,17.2683578491211,-10.316951751708984,1.8235460519790665,-12.108579635620115,-3.890451669692993,-0.0301265902817244,7.921276569366454,-5.925992012023928,-15.480791091918944,-0.0132508452817744,-0.4423797283866904,0.3350123990564278,0.8318000261422775,0.9770168662071228,0.8140366713153289,-2.6592822074890137,1.977948546409607,-0.3483944833278657,-0.3199287056922917,8.6290283203125,-6.3223509788513175,-6.88557243347168,-0.8372794985771179,11.501428604125977,-11.891319274902346,1.743954300880432,0.7677719593048096,0.7113984227180481,1
0.1780004501342809,17.246326065063474,-10.323972702026367,1.8234865665435804,-12.117802619934082,-3.861703872680664,-0.0327100716531272,8.08156681060791,-6.044170856475831,-15.494987487792969,-0.0117796707254979,-0.4420347261212362,0.3360525378659584,0.8315859739403804,0.9781913161277774,0.8143251577960413,-2.6620213985443115,1.976090788841248,-0.3463977873325348,-0.3189659118652348,8.628843307495117,-6.334068775177003,-6.875080108642577,-0.9271120429039,11.613062858581545,-11.82484245300293,1.741380214691162,0.7685298919677734,0.7103133797645569,1
0.17996525764465332,17.202210998535154,-10.337858200073242,1.8233532905578624,-12.13585090637207,-3.8045351505279537,-0.037961103022098,7.993647575378418,-5.990584373474122,-15.551897048950195,-0.00884243752574,-0.4413370839883674,0.3381229046311522,0.8311535904747335,0.9805178642272948,0.8149016539203093,-2.667503118515014,1.971732258796692,-0.3419162631034852,-0.3159615099430088,8.628544807434082,-6.35753059387207,-6.853747844696045,-0.8378493785858154,11.561015129089355,-11.886690139770508,1.7349593639373782,0.7703579068183899,0.7084117531776428,1
0.18198752403258922,17.180129623413087,-10.34472370147705,1.8232793807983407,-12.144694328308104,-3.776102066040039,-0.0406186841428275,7.975097656249999,-5.896735668182372,-15.650754928588867,-0.0073763553318336,-0.4409847349001565,0.3391531310466461,0.8309351398685181,0.981670439243317,0.8151901404010218,-2.6702451705932617,1.9692405462265008,-0.339756578207016,-0.3141619265079502,8.628424644470215,-6.369269847869872,-6.842942714691162,-0.7676345109939575,11.457447052001951,-11.866033554077148,1.7313692569732666,0.7711170315742493,0.7075955271720886,1
0.1840138435363734,17.158032989501955,-10.351537704467772,1.8232005834579483,-12.153464317321776,-3.7475485801696777,-0.043308768421411,8.012283325195312,-5.8399815559387225,-15.368337631225586,-0.0059122128956222,-0.4406300062274669,0.3401797312116032,0.8307153506607788,0.9828150868415833,0.8154786268817351,-2.672987937927246,1.966744899749756,-0.3376048207283021,-0.3123564422130589,8.628292083740233,-6.380850791931152,-6.832199096679688,-0.8153342008590698,11.40982437133789,-11.703067779541016,1.7277772426605225,0.7718716263771057,0.7067790627479553,1
0.18599390983581543,17.135919189453126,-10.358299255371094,1.8231168985366832,-12.162151336669922,-3.718882322311402,-0.0460359230637545,7.9499268531799325,-5.914721488952639,-15.43044662475586,-0.0044498056073289,-0.4402730516428854,0.3412026424751274,0.8304941878153684,0.9839517474174498,0.8157675901996062,-2.675731658935547,1.9641155004501345,-0.3354544043540955,-0.310290634632111,8.628143310546875,-6.39227294921875,-6.8215084075927725,-0.8051013350486755,11.454715728759766,-11.789450645446776,1.7239311933517456,0.7726262807846069,0.7060965895652771,1
0.18796801567077281,17.09164581298828,-10.371665000915527,1.8229343891143808,-12.179301261901855,-3.661192178726196,-0.0515864416956897,7.93731927871704,-5.994576930999759,-15.60990047454834,-0.0015303694586308,-0.439552449466292,0.3432368030654233,0.8300480703904628,0.98619943857193,0.8163469473468226,-2.681222438812256,1.9588567018508911,-0.3311717212200165,-0.3061409294605259,8.627803802490233,-6.414641380310059,-6.800326347351074,-0.7748181819915771,11.550373077392578,-11.958654403686523,1.7162392139434814,0.7741355895996094,0.7047320604324341,1
0.18998432159424183,17.069486236572267,-10.37826919555664,1.8228354454040536,-12.18778133392334,-3.632155179977417,-0.0543999969959254,8.042547225952147,-6.052567958831787,-15.603020668029783,-7.321114397265509e-05,-0.4391888377362448,0.344248296318433,0.8298230353092586,0.9873110651969912,0.8166373411761683,-2.683969497680664,1.9563270807266235,-0.3291922807693481,-0.3038605153560642,8.627610206604004,-6.425593852996826,-6.789860248565674,-0.8437544703483582,11.585919380187988,-11.846388816833494,1.712391972541809,0.7748889327049255,0.7043182253837585,1
0.19199872016907094,17.04731140136719,-10.384819984436035,1.822731375694276,-12.196194648742676,-3.602993249893189,-0.0572404302656646,8.05741024017334,-6.076820850372315,-15.68519115447998,0.0013824942597408,-0.4388231234287761,0.3452559160743419,0.8295967137528342,0.9884141087532043,0.8169286886798308,-2.686718225479126,1.9539332389831543,-0.3272203505039216,-0.3018296658992771,8.627406120300293,-6.436397075653076,-6.779473304748535,-0.8323849439620972,11.630197525024414,-11.934164047241213,1.708801031112671,0.7756423354148865,0.703769862651825,1
0.1939766407012975,17.02512130737305,-10.391317367553713,1.8226220607757584,-12.204532623291016,-3.573713779449463,-0.0601122826337809,7.97199201583862,-6.109677314758304,-15.695579528808596,0.0028363322487029,-0.4384548727043223,0.3462600893991287,0.8293691761275668,0.9895092248916626,0.8172195593463347,-2.6894681453704834,1.9515440464019769,-0.3252508342266083,-0.2997928857803349,8.627185821533201,-6.447049140930176,-6.769151210784912,-0.8206572532653809,11.6741361618042,-12.022266387939451,1.7052123546600342,0.7764014005661011,0.7032217979431152,1
0.19597291946411133,17.00291595458985,-10.397761344909668,1.8225075006485,-12.212793350219728,-3.5443172454833984,-0.06301537156105,8.024848937988281,-6.120927333831787,-15.82185173034668,0.0042887741295772,-0.4380848526985271,0.3472605868670505,0.8291401287245281,0.9905968308448792,0.8175118605243132,-2.692219018936157,1.9491503238677976,-0.3232890665531159,-0.2977496683597569,8.626952171325684,-6.4575514793396,-6.7588958740234375,-0.8085699677467346,11.717732429504396,-12.11068630218506,1.70162034034729,0.7771565914154053,0.7026735544204712,1
0.19797801971435547,16.958461380004888,-10.410490036010742,1.8222624063491832,-12.22902011871338,-3.485788583755493,-0.0688379406929011,8.030819892883299,-6.107307434082032,-15.664628982543944,0.0071887046894021,-0.4373389030766048,0.3492504997277162,0.8286779198341062,0.9927486777305604,0.8180988470660613,-2.697723388671875,1.9441049098968504,-0.3200173377990724,-0.2936516106128697,8.626513481140138,-6.478604316711426,-6.738226413726808,-0.8173350691795349,11.646920204162598,-11.981285095214846,1.6944395303726196,0.7780374884605408,0.7018454670906067,1
0.19997429847717285,16.936212158203126,-10.41677474975586,1.8221318721771247,-12.23697566986084,-3.456664562225342,-0.0717617794871326,7.9316625595092765,-6.045988082885742,-15.662660598754885,0.0086362775775731,-0.4369629652561191,0.3502399402092535,0.8284447875304674,0.99381285905838,0.8183935324298308,-2.700477123260498,1.9415812492370603,-0.3183916211128235,-0.2915969192981724,8.626307487487793,-6.4891533851623535,-6.727797508239746,-0.7767598628997803,11.61794090270996,-12.013689994812012,1.6908496618270874,0.778476357460022,0.7014315128326416,1
0.20197510719299672,16.91394958496094,-10.423006057739258,1.8219959735870368,-12.244853019714355,-3.4274253845214844,-0.0747161954641338,8.085461616516112,-6.034359455108644,-15.59054470062256,0.0100820608543911,-0.436585270689807,0.3512256806800323,0.8282102237333733,0.994869649410248,0.8186891714679163,-2.7032310962677,1.9390596151351929,-0.3167699277400971,-0.2895375192165378,8.626081466674805,-6.499555587768555,-6.717439651489258,-0.8638710975646973,11.644187927246096,-11.912654876708984,1.6872606277465818,0.7789180874824524,0.7010174393653871,1
0.20400047302246094,16.91394958496094,-10.423006057739258,1.8219959735870368,-12.244853019714355,-3.4274253845214844,-0.0747161954641338,8.085461616516112,-6.034359455108644,-15.59054470062256,0.0100820608543911,-0.436585270689807,0.3512256806800323,0.8282102237333733,0.994869649410248,0.8186891714679163,-2.7032310962677,1.9390596151351929,-0.3167699277400971,-0.2895375192165378,8.626081466674805,-6.499555587768555,-6.717439651489258,-0.8638710975646973,11.644187927246096,-11.912654876708984,1.6872606277465818,0.7789180874824524,0.7010174393653871,1
0.2059717178344691,16.91394958496094,-10.423006057739258,1.8219959735870368,-12.244853019714355,-3.4274253845214844,-0.0747161954641338,8.085461616516112,-6.034359455108644,-15.59054470062256,0.0100820608543911,-0.436585270689807,0.3512256806800323,0.8282102237333733,0.994869649410248,0.8186891714679163,-2.7032310962677,1.9390596151351929,-0.3167699277400971,-0.2895375192165378,8.626081466674805,-6.499555587768555,-6.717439651489258,-0.8638710975646973,11.644187927246096,-11.912654876708984,1.6872606277465818,0.7789180874824524,0.7010174393653871,1
0.2079830169677912,16.847076034545903,-10.441381454467772,1.8215548992157,-12.267498970031738,-3.339453220367432,-0.0840296000242229,7.916555404663085,-6.0307159423828125,-15.654861450195312,0.014402430589763,-0.4354370054604975,0.3541635708370561,0.8274994558068587,0.997999370098114,0.8195655981646928,-2.711487293243408,1.9286187887191768,-0.3071894049644471,-0.2872839868068699,8.625424385070799,-6.529711246490479,-6.68606424331665,-0.6986469030380249,11.592813491821287,-11.986748695373535,1.6754757165908811,0.7808690667152405,0.6930676102638245,1
0.2100205421447754,16.82475814819336,-10.447400093078612,1.821396231651308,-12.274767875671388,-3.3100054264068604,-0.0872568190097804,7.952627182006835,-6.072980403900147,-15.465371131896973,0.0158335826446124,-0.4350481901495726,0.3551367928628411,0.8272606773341238,0.9990305304527286,0.8198488394366668,-2.7142319679260254,1.9240263700485232,-0.3033839762210846,-0.2866123914718632,8.625244140625,-6.539346694946289,-6.6756019592285165,-0.7513297796249391,11.649251937866213,-11.86887264251709,1.6706174612045288,0.7813100814819336,0.689568281173706,1
0.21200227737427113,16.802426910400392,-10.453364372253418,1.8212316036224376,-12.281949043273926,-3.280453681945801,-0.0905179604887958,7.939794540405272,-6.184103965759277,-15.613361358642578,0.0172603917161242,-0.434656959078036,0.3561061276607954,0.8270210593722954,1.0000542402267456,0.8201292196856902,-2.716973066329956,1.919297695159912,-0.2995880544185639,-0.2856769859790806,8.625081062316895,-6.548773288726808,-6.665219783782959,-0.7564001083374023,11.771361351013184,-12.012432098388672,1.6655038595199585,0.7817496061325073,0.6862031817436218,1
0.21398091316223145,16.780082321166994,-10.459275245666504,1.8210610151290905,-12.289051055908203,-3.250791072845459,-0.0938081741333003,7.963538646697995,-6.133656501770022,-15.710177421569824,0.018682851468921,-0.4342629674640757,0.3570721853386129,0.8267805516627692,1.001071572303772,0.8204057852374484,-2.7197105884552,1.91457200050354,-0.2957923710346222,-0.2847310006618504,8.624936103820799,-6.5579915046691895,-6.65493106842041,-0.715921938419342,11.742867469787598,-12.044548988342283,1.660391330718994,0.7821905016899109,0.6828381419181824,1
0.21597599983215687,16.735356903076173,-10.470934867858888,1.820701956748964,-12.302943229675291,-3.1916768550872803,-0.1003956720232959,8.012682914733888,-6.186161518096925,-15.624763488769531,0.0215143915530191,-0.43346708055118,0.3589919250166369,0.8262978995540227,1.0030807256698608,0.8209489027606414,-2.7251765727996826,1.904947519302368,-0.2883895635604859,-0.2821123600006107,8.62474250793457,-6.576230049133301,-6.6342949867248535,-0.7637200951576233,11.745565414428713,-11.977656364440918,1.64965558052063,0.7830701470375061,0.6766449213027954,1
0.21797609329223988,16.71297607421875,-10.4766845703125,1.820513486862184,-12.309741020202637,-3.1622185707092285,-0.1036878824234004,8.081974983215332,-6.155379772186277,-15.38648796081543,0.0229236765428689,-0.4330651816885368,0.3599458488461016,0.8260557120202557,1.0040730237960818,0.8212154547320765,-2.7279052734375,1.9001860618591309,-0.2847735583782197,-0.2806934714317325,8.624685287475586,-6.5852532386779785,-6.623957633972168,-0.8522172570228577,11.777852058410645,-11.87937831878662,1.6442877054214478,0.7835094332695007,0.673682451248169,1
0.21996927261352184,16.690581893920903,-10.482379913330078,1.8203189373016373,-12.316485404968262,-3.132628917694092,-0.1069945245981212,7.882872581481933,-6.094686508178714,-15.559442520141602,0.0243291247068413,-0.4326609795552882,0.3608959665484803,0.8258127340930846,1.0050578117370603,0.8214796225177214,-2.7306313514709486,1.895660161972046,-0.2813126146793365,-0.2793294489383701,8.624641418457031,-6.594078540802003,-6.613752365112305,-0.6920832991600037,11.682554244995115,-12.045269012451172,1.6391737461090088,0.7839479446411133,0.6708542704582214,1
0.22197723388671875,16.66817626953125,-10.488021850585938,1.8201183080673229,-12.323165893554688,-3.1029157638549805,-0.110319964587688,7.957667350769043,-6.152541637420652,-15.579133987426758,0.0257305092328356,-0.4322542848828377,0.3618420171440413,0.8255692149808984,1.0060341358184817,0.8217409292804163,-2.7333550453186035,1.8912327289581297,-0.2780203223228455,-0.2777690589427952,8.624604225158691,-6.602710247039795,-6.603666305541992,-0.7720707654953003,11.722777366638184,-11.942848205566404,1.6340596675872805,0.7843854427337646,0.6682944297790527,1
0.22397851943969727,16.66817626953125,-10.488021850585938,1.8201183080673229,-12.323165893554688,-3.1029157638549805,-0.110319964587688,7.957667350769043,-6.152541637420652,-15.579133987426758,0.0257305092328356,-0.4322542848828377,0.3618420171440413,0.8255692149808984,1.0060341358184817,0.8217409292804163,-2.7333550453186035,1.8912327289581297,-0.2780203223228455,-0.2777690589427952,8.624604225158691,-6.602710247039795,-6.603666305541992,-0.7720707654953003,11.722777366638184,-11.942848205566404,1.6340596675872805,0.7843854427337646,0.6682944297790527,1
0.22599768638611195,16.66817626953125,-10.488021850585938,1.8201183080673229,-12.323165893554688,-3.1029157638549805,-0.110319964587688,7.957667350769043,-6.152541637420652,-15.579133987426758,0.0257305092328356,-0.4322542848828377,0.3618420171440413,0.8255692149808984,1.0060341358184817,0.8217409292804163,-2.7333550453186035,1.8912327289581297,-0.2780203223228455,-0.2777690589427952,8.624604225158691,-6.602710247039795,-6.603666305541992,-0.7720707654953003,11.722777366638184,-11.942848205566404,1.6340596675872805,0.7843854427337646,0.6682944297790527,1
0.2279653549194336,16.66817626953125,-10.488021850585938,1.8201183080673229,-12.323165893554688,-3.1029157638549805,-0.110319964587688,7.957667350769043,-6.152541637420652,-15.579133987426758,0.0257305092328356,-0.4322542848828377,0.3618420171440413,0.8255692149808984,1.0060341358184817,0.8217409292804163,-2.7333550453186035,1.8912327289581297,-0.2780203223228455,-0.2777690589427952,8.624604225158691,-6.602710247039795,-6.603666305541992,-0.7720707654953003,11.722777366638184,-11.942848205566404,1.6340596675872805,0.7843854427337646,0.6682944297790527,1
0.22999286651612394,16.66817626953125,-10.488021850585938,1.8201183080673229,-12.323165893554688,-3.1029157638549805,-0.110319964587688,7.957667350769043,-6.152541637420652,-15.579133987426758,0.0257305092328356,-0.4322542848828377,0.3618420171440413,0.8255692149808984,1.0060341358184817,0.8217409292804163,-2.7333550453186035,1.8912327289581297,-0.2780203223228455,-0.2777690589427952,8.624604225158691,-6.602710247039795,-6.603666305541992,-0.7720707654953003,11.722777366638184,-11.942848205566404,1.6340596675872805,0.7843854427337646,0.6682944297790527,1
0.23196125030517578,16.66817626953125,-10.488021850585938,1.8201183080673229,-12.323165893554688,-3.1029157638549805,-0.110319964587688,7.957667350769043,-6.152541637420652,-15.579133987426758,0.0257305092328356,-0.4322542848828377,0.3618420171440413,0.8255692149808984,1.0060341358184817,0.8217409292804163,-2.7333550453186035,1.8912327289581297,-0.2780203223228455,-0.2777690589427952,8.624604225158691,-6.602710247039795,-6.603666305541992,-0.7720707654953003,11.722777366638184,-11.942848205566404,1.6340596675872805,0.7843854427337646,0.6682944297790527,1
0.23395848274230957,16.60089073181153,-10.504624366760254,1.819478154182436,-12.34146785736084,-3.0142626762390137,-0.1211187690496441,7.958889961242675,-6.130592823028565,-15.48477554321289,0.0298927586617464,-0.4310138915422605,0.3646624905211545,0.8248361754215779,1.0089337825775149,0.8224766890155233,-2.7414770126342773,1.8695602416992188,-0.2575910091400147,-0.2829257845878604,8.624802589416504,-6.6270527839660645,-6.5722432136535645,-0.6938062310218811,11.772188186645508,-11.864410400390623,1.615933537483215,0.7850704789161682,0.6441208720207214,1
0.23599481582641602,16.57844123840332,-10.510051727294922,1.819250941276552,-12.34701442718506,-2.9848592281341566,-0.1249786838889118,7.937216758728026,-6.231368541717527,-15.321040153503418,0.0312566661988377,-0.4305897276728015,0.3655990933288829,0.8245925116067304,1.009896755218506,0.8226879278766082,-2.744152545928955,1.8596808910369875,-0.2474118918180465,-0.2865819633007053,8.625113487243652,-6.634437084197997,-6.561445236206055,-0.6881442070007324,11.79382038116455,-11.672225952148438,1.6082853078842163,0.7855093479156494,0.6316338777542114,1
0.238006591796875,16.555982208251955,-10.515424728393556,1.8190165758132943,-12.352463722229006,-2.955369472503662,-0.1288734525442119,7.961251735687255,-6.344078063964845,-15.095924377441404,0.0326082500319027,-0.4301600931785153,0.3665333960678148,0.8243496017064013,1.0108566284179688,0.8228815237628382,-2.746811866760254,1.8495299816131592,-0.2372520714998245,-0.2897043526172641,8.62554931640625,-6.6414408683776855,-6.55075740814209,-0.7599796056747437,11.936271667480469,-11.614753723144531,1.6001265048980713,0.785945475101471,0.6194157600402832,1
0.2399971485137975,16.533513641357423,-10.520744323730469,1.8187751770019545,-12.357833862304688,-2.92577862739563,-0.1327936649322506,8.082365989685059,-6.342454910278321,-14.97723388671875,0.0339477327683934,-0.4297251916835255,0.3674644931482383,0.8241077947378922,1.011811017990112,0.8230584303485321,-2.7494561672210693,1.839210867881775,-0.2272818684577942,-0.2921108603477481,8.626105308532715,-6.648070812225343,-6.540212631225586,-0.8421797156333923,11.981854438781738,-11.514571189880373,1.591462254524231,0.7863843441009521,0.6077345609664917,1
0.24197602272033336,16.48854789733887,-10.531222343444824,1.818271040916444,-12.36832332611084,-2.8668084144592285,-0.1405733525753017,7.975371360778808,-6.197556495666505,-14.959753036499023,0.0365914519310403,-0.4288413833704904,0.3693164727029735,0.8236270251422646,1.0137040615081787,0.8233664671527303,-2.754699230194092,1.818429470062256,-0.2086544632911682,-0.2956524491310124,8.627562522888184,-6.660678863525393,-6.5192928314208975,-0.7588124871253967,11.847686767578123,-11.523959159851074,1.5736205577850342,0.7866267561912537,0.5859828591346741,1
0.24397516250611062,16.46605072021485,-10.536381721496582,1.818008422851564,-12.373458862304688,-2.837414264678955,-0.1444231867790218,7.98398733139038,-6.184107780456544,-15.10916805267334,0.0378964605519684,-0.4283927498113908,0.3702367605891508,0.8233882749317725,1.0146409273147583,0.8234990278827117,-2.757299900054932,1.8083362579345703,-0.1998389959335327,-0.2968357801437382,8.628453254699707,-6.666675090789795,-6.508942127227782,-0.7299246788024902,11.815638542175291,-11.558683395385742,1.5646995306015017,0.7867470383644104,0.5759125351905823,1
0.24597525596619008,16.443544006347654,-10.541486740112305,1.8177387714386,-12.378547668457031,-2.807889699935913,-0.148279175162315,7.9573655128478995,-6.140693187713622,-15.069880485534668,0.0391910533775268,-0.4279400104361897,0.3711532593223644,0.8231504521637701,1.015571475028992,0.8236187140094202,-2.7598876953125,1.7984431982040403,-0.1913572996854782,-0.2976298630237583,8.629435539245605,-6.672331809997559,-6.498793125152588,-0.7100417017936707,11.776692390441896,-11.597389221191404,1.5557796955108645,0.786870002746582,0.5663787722587585,1
0.24797105789184215,16.443544006347654,-10.541486740112305,1.8177387714386,-12.378547668457031,-2.807889699935913,-0.148279175162315,7.9573655128478995,-6.140693187713622,-15.069880485534668,0.0391910533775268,-0.4279400104361897,0.3711532593223644,0.8231504521637701,1.015571475028992,0.8236187140094202,-2.7598876953125,1.7984431982040403,-0.1913572996854782,-0.2976298630237583,8.629435539245605,-6.672331809997559,-6.498793125152588,-0.7100417017936707,11.776692390441896,-11.597389221191404,1.5557796955108645,0.786870002746582,0.5663787722587585,1
0.2499539852142334,16.375970458984376,-10.556478500366213,1.816887974739076,-12.393558502197266,-2.718513011932373,-0.1598676443099972,8.071114540100098,-6.27207374572754,-15.250370025634766,0.0430144021865332,-0.4265581654633217,0.3738768249982609,0.8224439266055288,1.018316149711609,0.8239052931415003,-2.767580509185791,1.7704440355300903,-0.1677690297365189,-0.2979881465435032,8.632869720458983,-6.687358379364014,-6.469588279724121,-0.8030609488487244,11.88676643371582,-11.699519157409668,1.5295228958129885,0.7875464558601379,0.5408647060394287,1
0.25197291374206543,16.353427505493165,-10.56136703491211,1.816590309143068,-12.398484230041506,-2.6884467601776123,-0.1637318581342693,7.9951601028442365,-6.307541847229005,-15.298795700073242,0.0442704893859095,-0.4260898873970249,0.3747759340900504,0.8222107581724122,1.0192141532897954,0.8239787260638641,-2.770124912261963,1.7618426084518433,-0.160468727350235,-0.2975360453128819,8.634162902832031,-6.6917572021484375,-6.460270404815674,-0.7896641492843628,11.930835723876951,-11.792081832885742,1.5211108922958374,0.7879833579063416,0.5333440303802489,1
0.25399112701416016,16.330875968933103,-10.566200256347656,1.816285610198976,-12.403361320495604,-2.658252239227295,-0.167600721120834,7.902473926544187,-6.271074295043946,-15.319709777832031,0.0455183334958088,-0.4256183627645142,0.3756705016942786,0.8219785670868723,1.0201035737991333,0.8240430990802214,-2.772660493850708,1.753434419631958,-0.1535159796476364,-0.2967035770416264,8.635524749755861,-6.695868968963622,-6.451146125793457,-0.723995566368103,11.929763793945312,-11.953051567077637,1.5126969814300537,0.7884201407432556,0.5263602733612059,1
0.25599789619446156,16.3083158493042,-10.570978164672852,1.8159738779068009,-12.40818214416504,-2.627938270568848,-0.171478375792503,7.962727546691894,-6.345713615417481,-15.40876579284668,0.0467577376230398,-0.4251436401963778,0.3765601309963932,0.8217475688536758,1.0209834575653078,0.8240984121905726,-2.7751872539520264,1.7449944019317627,-0.1470491737127304,-0.2957084476947788,8.636943817138674,-6.699701309204103,-6.442209720611572,-0.7799392342567444,12.004318237304688,-11.986180305480955,1.5042858123779297,0.788544237613678,0.5197792053222656,1
0.25797772407532094,16.285748100280763,-10.575701713562012,1.815654635429384,-12.412490844726562,-2.5979576110839844,-0.175608083605766,8.076408386230469,-6.393139362335206,-15.344681739807127,0.0479839322647683,-0.4246635332047292,0.3774474222291987,0.8215180273512074,1.0218607187271116,0.8241346518145959,-2.777696132659912,1.733897089958191,-0.1362193971872329,-0.2986470758914951,8.638498306274414,-6.703145503997803,-6.43278169631958,-0.8384314775466919,12.077055931091309,-11.875619888305664,1.4953675270080566,0.7886648774147034,0.5067585110664368,1
0.2599895000457728,16.24058971405029,-10.584985733032228,1.8149935007095348,-12.420794486999512,-2.538296699523926,-0.1838283687829968,8.000104904174805,-6.3776030540466335,-15.06517505645752,0.0503968947705832,-0.4236895943921791,0.37921167853044,0.8210638120556768,1.0236018896102903,0.8241556326495583,-2.782660007476806,1.710579514503479,-0.1157953068614006,-0.3028660714626316,8.641992568969728,-6.709319591522218,-6.414047718048098,-0.7887305021286011,12.011860847473145,-11.654423713684082,1.476006269454956,0.7879619002342224,0.4821939766407013,1
0.2619938850402832,16.217999076843263,-10.589547157287598,1.8146518468856816,-12.424814224243164,-2.5085930824279785,-0.1879049986600873,7.964190006256103,-6.222671508789063,-15.00113296508789,0.051584143414907,-0.4231958816523873,0.3800877928058486,0.8208395651164648,1.0244631767272951,0.8241413275348108,-2.785116910934448,1.6989563703536987,-0.1059119552373886,-0.3039713501930241,8.6439208984375,-6.712060928344728,-6.404788494110107,-0.747783899307251,11.906610488891602,-11.627555847167969,1.4658178091049194,0.7877669930458069,0.4707841873168945,1
0.2640113830566406,16.195401763916017,-10.594054222106934,1.8143028020858776,-12.428777694702148,-2.4787747859954834,-0.1919883787631984,8.059722900390625,-6.2321162223815945,-15.099494934082031,0.0527589700960732,-0.422698375504801,0.3809594967304244,0.8206171069816334,1.0253180265426636,0.8241122404681605,-2.7875571250915527,1.6872996091842651,-0.096509151160717,-0.304912239313126,8.645951271057129,-6.714434623718263,-6.395750999450684,-0.8000661134719849,11.90174674987793,-11.605711936950684,1.4556303024291992,0.7872581481933594,0.4597771465778351,1
0.2659897804260254,16.17279682159424,-10.598506927490234,1.8139463663101207,-12.43270206451416,-2.448825597763061,-0.19606938958168,8.032231330871582,-6.215184211730957,-15.085488319396973,0.053921963408935,-0.4221967673740998,0.3818267957204146,0.8203966172229543,1.02616548538208,0.8240683714496062,-2.7899825572967525,1.676065444946289,-0.0873250365257263,-0.3052583336830143,8.64808177947998,-6.716454029083253,-6.386953353881836,-0.7737280130386353,11.871855735778809,-11.638072967529297,1.4454406499862669,0.7870633602142334,0.4494411349296569,1
0.26796603202819824,16.127565956115724,-10.607247352600098,1.813211083412172,-12.440422058105469,-2.388545036315918,-0.2042273581027981,7.928794860839843,-6.291188716888429,-15.266362190246582,0.0562142550682281,-0.4211834991683413,0.383546836941354,0.819961121900129,1.0278369188308716,0.8239424864398401,-2.794790267944336,1.6539093255996704,-0.070642814040184,-0.3049112260341648,8.652600288391112,-6.719471454620361,-6.370086669921875,-0.7572216391563416,11.95383358001709,-11.827627182006836,1.4250637292861938,0.7860433459281921,0.4306480884552002,1
0.2699766159057617,16.104940032958986,-10.61153507232666,1.812832355499269,-12.444217681884766,-2.3582146167755127,-0.2083036899566648,8.044511795043945,-6.313805580139161,-15.285813331604006,0.0573442706556804,-0.4206719984523745,0.3843994692137037,0.8197461512012585,1.0286602973937988,0.8238614241229452,-2.7971739768981934,1.6432604789733891,-0.0628050118684769,-0.3044294118881229,8.654975891113281,-6.720490455627441,-6.3620147705078125,-0.8146858215332031,12.03115940093994,-11.862563133239744,1.41512930393219,0.7855339646339417,0.4219226241111755,1
0.27197098731994984,16.082307434082033,-10.615767478942873,1.8124462366104144,-12.447973251342772,-2.3277554512023926,-0.2123763859272,8.007347106933594,-6.294086456298827,-15.254281997680664,0.058464312299584,-0.4201576334199708,0.3852467369845807,0.8195330615106383,1.0294742584228518,0.8237698713885702,-2.799545764923096,1.6330335140228271,-0.0551981367170811,-0.3033602535724644,8.657429695129395,-6.721200466156006,-6.354183197021484,-0.7975049614906311,11.99442195892334,-11.898611068725586,1.4051939249038696,0.7853392958641052,0.4138678908348084,1
0.273972511291511,16.059668159484865,-10.61994457244873,1.8120527267456064,-12.451696395874023,-2.297159671783448,-0.216440752148628,8.062618255615233,-6.379352092742921,-15.30929946899414,0.0595746340115516,-0.4196403337521162,0.3860888351504571,0.8193218321532544,1.0302790403366089,0.8236678282367156,-2.801906108856201,1.6230006217956543,-0.0482320226728916,-0.3022190034389499,8.659947395324707,-6.7216129302978525,-6.346606731414795,-0.8550203442573547,12.072105407714846,-11.934062957763672,1.395512342453003,0.7848284244537354,0.4063501358032226,1
0.27596521377563477,16.037022209167482,-10.624065399169922,1.811651825904848,-12.455370903015137,-2.266444444656372,-0.2205052226781842,8.098502159118652,-6.395972728729247,-15.36482048034668,0.0606760426107084,-0.4191207030228022,0.386925646091604,0.8191122014396871,1.0310747623443604,0.8235572020160125,-2.804255723953247,1.6131595373153689,-0.0416302308440208,-0.3007139861583713,8.662522315979004,-6.721736431121826,-6.339261531829834,-0.8508610725402832,12.10925579071045,-12.031476020812988,1.3858311176300049,0.7843173146247864,0.3993690907955169,1
0.2779707908630371,15.99171028137207,-10.632139205932615,1.8108279705047616,-12.462506294250488,-2.205235958099365,-0.2285311520099637,8.078286170959473,-6.411899089813232,-15.54285717010498,0.0628525414303923,-0.4180743389055333,0.3885834547344138,0.8186979320183421,1.0326385498046875,0.8233102003680632,-2.808923959732056,1.5944724082946775,-0.0294201001524925,-0.2973651587963108,8.667830467224121,-6.721591472625732,-6.324843883514402,-0.8295471072196959,12.109590530395508,-12.164498329162598,1.367232084274292,0.7833000421524048,0.3866148293018341,1
0.27996659278869274,15.96904525756836,-10.636093139648438,1.8104052543640148,-12.465950965881348,-2.1747610569000244,-0.2325007319450376,8.089466094970701,-6.367637157440186,-15.48021411895752,0.0639282242339034,-0.4175482990585041,0.3894040428427242,0.8184931835497421,1.033406138420105,0.8231757322894501,-2.811243057250977,1.5852535963058472,-0.023976607248187,-0.295497685670853,8.670557975769043,-6.721340656280518,-6.317749500274657,-0.8620883822441101,12.041187286376951,-12.076533317565918,1.3580604791641235,0.7824758887290955,0.3808415830135345,1
0.28197050094604137,15.946373558044437,-10.639991760253906,1.809975266456605,-12.46934700012207,-2.1441688537597656,-0.2364692538976666,8.020065307617188,-6.259383678436277,-15.47971248626709,0.0649962630708271,-0.4170203847720687,0.3902193781641585,0.8182898761298231,1.0341645479202273,0.8230345884906218,-2.8135533332824703,1.576501965522766,-0.0185576882213354,-0.2934727072715762,8.673321723937987,-6.7208356857299805,-6.310873985290527,-0.8244401216506958,11.939051628112791,-12.044806480407717,1.3491430282592771,0.7819675207138062,0.3753368258476257,1
0.28399848937987926,15.946373558044437,-10.639991760253906,1.809975266456605,-12.46934700012207,-2.1441688537597656,-0.2364692538976666,8.020065307617188,-6.259383678436277,-15.47971248626709,0.0649962630708271,-0.4170203847720687,0.3902193781641585,0.8182898761298231,1.0341645479202273,0.8230345884906218,-2.8135533332824703,1.576501965522766,-0.0185576882213354,-0.2934727072715762,8.673321723937987,-6.7208356857299805,-6.310873985290527,-0.8244401216506958,11.939051628112791,-12.044806480407717,1.3491430282592771,0.7819675207138062,0.3753368258476257,1
0.28596639633179066,15.878324127197263,-10.651352882385254,1.808641314506532,-12.47867202758789,-2.0523197650909424,-0.248677462339401,8.084193229675293,-6.290107727050782,-15.45846462249756,0.068146699845624,-0.4154224425203657,0.392635865628209,0.8176902216444505,1.0363904237747197,0.8225563208209428,-2.8204181194305407,1.5474724769592283,0.0014763438375666,-0.2909652590751651,8.681941986083983,-6.717674255371094,-6.290694236755371,-0.8590365648269653,12.030760765075684,-12.064678192138672,1.3218833208084106,0.7798081040382385,0.3529199063777924,1
0.28797912597655895,15.855630493164062,-10.655028343200684,1.8081816434860245,-12.48155689239502,-2.021612882614136,-0.2528118789196012,8.123506546020508,-6.38258457183838,-15.469104766845703,0.0691764950858821,-0.4148848677197654,0.3934325317497836,0.8174937321018071,1.0371201038360598,0.8223751227008265,-2.822678327560425,1.5370628833770752,0.0084429262205958,-0.2905078530311588,8.684956550598145,-6.716019153594973,-6.284236907958984,-0.870103120803833,12.065857887268065,-12.022071838378904,1.3124606609344482,0.7786689996719359,0.3447323739528656,1
0.2900044918060303,15.832932090759275,-10.658647537231444,1.8077144622802743,-12.48437786102295,-1.9908097982406616,-0.2569523155689237,8.165968894958496,-6.4592247009277335,-15.475957870483398,0.0701960720807487,-0.4143452506928149,0.3942241198317401,0.8172991300837366,1.0378423929214478,0.8221839110003875,-2.8249244689941406,1.5264673233032229,0.0148752527311443,-0.2896698713302616,8.688028335571289,-6.714073657989503,-6.27800178527832,-0.9282656908035278,12.145624160766602,-12.059572219848633,1.3027807474136353,0.7772105932235718,0.3370818793773651,1
0.29203677177428133,15.810227966308595,-10.662211418151855,1.807239770889284,-12.487141609191896,-1.95990252494812,-0.2610941827297209,8.155942916870117,-6.45724439620972,-15.601880073547363,0.071206115646285,-0.413804273217438,0.3950105681897801,0.8171060907739844,1.038557767868042,0.8219845930682586,-2.827156782150269,1.5158312320709229,0.0208147410303353,-0.2887022495269779,8.691143035888674,-6.711843967437744,-6.272004127502441,-0.9039725065231324,12.11779499053955,-12.089385032653809,1.2931013107299805,0.7754385471343994,0.3298341035842895,1
0.29401135444641113,15.787519073486328,-10.66571807861328,1.8067575693130504,-12.489856719970703,-1.928882837295532,-0.2652328908443449,8.087371826171875,-6.461943149566651,-15.506258964538574,0.0722063905195186,-0.4132618019475613,0.3957917113355364,0.8169148312139306,1.0392656326293943,0.8217766920672815,-2.8293752670288086,1.5056627988815308,0.0267283786088227,-0.2875765264034274,8.694309234619139,-6.70934009552002,-6.266250133514402,-0.8999496102333069,12.155088424682615,-12.186796188354492,1.2836769819259644,0.7739821672439575,0.3228547275066376,1
0.29598093032836914,15.76480541229248,-10.669169425964355,1.8062679767608656,-12.492469787597654,-1.8983005285263064,-0.2692855000495908,8.036835670471191,-6.339081764221192,-15.54269313812256,0.0731976577719917,-0.4127180119146561,0.3965678388775384,0.8167251035115223,1.0399665832519531,0.8215611616717737,-2.8315808773040767,1.4954513311386108,0.0321474373340606,-0.2863245308399204,8.69753360748291,-6.7069640159606925,-6.26035213470459,-0.8646618127822876,12.055418968200684,-12.152223587036133,1.2742514610290527,0.7722113132476807,0.3162779211997986,1
0.29797434806824086,15.74208698272705,-10.672565460205078,1.805770993232728,-12.495041847229006,-1.867598056793213,-0.2733301818370817,8.101723670959473,-6.302842617034912,-15.449299812316896,0.0741801207568963,-0.4121728618812771,0.3973391963262921,0.8165368360802019,1.040661096572876,0.8213380018817351,-2.8337738513946533,1.4855676889419556,0.0372295007109641,-0.2849754393100742,8.700794219970701,-6.704329967498777,-6.254711627960205,-0.9120392203330994,12.06399631500244,-12.12619972229004,1.265081524848938,0.7704390883445741,0.3101035356521606,1
0.29995799064635875,15.71936378479004,-10.675905227661133,1.8052667379379288,-12.497565269470217,-1.8367847204208367,-0.2773709893226621,8.109065055847168,-6.205543518066407,-15.410528182983398,0.0751540445242675,-0.411627076613276,0.3981047534579604,0.8163501850704935,1.0413471460342407,0.8211091200457972,-2.8359546661376966,1.475873589515686,0.0419328622519969,-0.2832821011543277,8.704082489013674,-6.701446533203125,-6.24931526184082,-0.8862795233726501,11.958075523376465,-12.094803810119627,1.2559126615524292,0.7686687111854553,0.3044661283493042,1
0.3019812107086217,15.69663677215576,-10.67918872833252,1.8047550916671768,-12.500040054321287,-1.805861115455628,-0.2814076840877531,8.091139793395996,-6.3121428489685085,-15.375290870666506,0.0761203149508373,-0.4110803124586799,0.3988652463783675,0.8161649279356371,1.042025685310364,0.8208745161639612,-2.838124990463257,1.4666433334350586,0.0466050207614898,-0.281433314085007,8.707395553588867,-6.698322296142577,-6.244154453277588,-0.9450078010559082,12.039008140563965,-12.13303565979004,1.2469953298568726,0.7672123908996582,0.299096941947937,1
0.30397629737854004,15.69663677215576,-10.67918872833252,1.8047550916671768,-12.500040054321287,-1.805861115455628,-0.2814076840877531,8.091139793395996,-6.3121428489685085,-15.375290870666506,0.0761203149508373,-0.4110803124586799,0.3988652463783675,0.8161649279356371,1.042025685310364,0.8208745161639612,-2.838124990463257,1.4666433334350586,0.0466050207614898,-0.281433314085007,8.707395553588867,-6.698322296142577,-6.244154453277588,-0.9450078010559082,12.039008140563965,-12.13303565979004,1.2469953298568726,0.7672123908996582,0.299096941947937,1
0.3059780597686803,15.69663677215576,-10.67918872833252,1.8047550916671768,-12.500040054321287,-1.805861115455628,-0.2814076840877531,8.091139793395996,-6.3121428489685085,-15.375290870666506,0.0761203149508373,-0.4110803124586799,0.3988652463783675,0.8161649279356371,1.042025685310364,0.8208745161639612,-2.838124990463257,1.4666433334350586,0.0466050207614898,-0.281433314085007,8.707395553588867,-6.698322296142577,-6.244154453277588,-0.9450078010559082,12.039008140563965,-12.13303565979004,1.2469953298568726,0.7672123908996582,0.299096941947937,1
0.30797719955444336,15.69663677215576,-10.67918872833252,1.8047550916671768,-12.500040054321287,-1.805861115455628,-0.2814076840877531,8.091139793395996,-6.3121428489685085,-15.375290870666506,0.0761203149508373,-0.4110803124586799,0.3988652463783675,0.8161649279356371,1.042025685310364,0.8208745161639612,-2.838124990463257,1.4666433334350586,0.0466050207614898,-0.281433314085007,8.707395553588867,-6.698322296142577,-6.244154453277588,-0.9450078010559082,12.039008140563965,-12.13303565979004,1.2469953298568726,0.7672123908996582,0.299096941947937,1
0.3100049495696986,15.69663677215576,-10.67918872833252,1.8047550916671768,-12.500040054321287,-1.805861115455628,-0.2814076840877531,8.091139793395996,-6.3121428489685085,-15.375290870666506,0.0761203149508373,-0.4110803124586799,0.3988652463783675,0.8161649279356371,1.042025685310364,0.8208745161639612,-2.838124990463257,1.4666433334350586,0.0466050207614898,-0.281433314085007,8.707395553588867,-6.698322296142577,-6.244154453277588,-0.9450078010559082,12.039008140563965,-12.13303565979004,1.2469953298568726,0.7672123908996582,0.299096941947937,1
0.3119733333587611,15.69663677215576,-10.67918872833252,1.8047550916671768,-12.500040054321287,-1.805861115455628,-0.2814076840877531,8.091139793395996,-6.3121428489685085,-15.375290870666506,0.0761203149508373,-0.4110803124586799,0.3988652463783675,0.8161649279356371,1.042025685310364,0.8208745161639612,-2.838124990463257,1.4666433334350586,0.0466050207614898,-0.281433314085007,8.707395553588867,-6.698322296142577,-6.244154453277588,-0.9450078010559082,12.039008140563965,-12.13303565979004,1.2469953298568726,0.7672123908996582,0.299096941947937,1
0.3139770030975342,15.628427124023435,-10.688698768615724,1.8031765222549447,-12.507465362548828,-1.7120851278305054,-0.2933239340782163,8.099365234375,-6.316639900207522,-15.794779777526855,0.0789805414458293,-0.4094405864997768,0.4011090158350328,0.8156175804968243,1.0440001487731936,0.8201578299151828,-2.8445856571197514,1.4410308599472046,0.0534417629241943,-0.2693179249763492,8.717321395874022,-6.687736988067628,-6.230619430541992,-0.8963603973388672,12.085658073425291,-12.495111465454102,1.21897292137146,0.7622138857841492,0.2927803099155426,1
0.31595635414123535,15.605681991577148,-10.691754341125488,1.8026360273361224,-12.509835243225098,-1.6806176900863647,-0.2972905635833737,8.180370330810549,-6.400390625000001,-15.903180122375488,0.0799246275908495,-0.4088960313436997,0.4018408701666029,0.8154385350960447,1.0446281433105469,0.8199227491961882,-2.846730947494507,1.4325361251831057,0.0545596405863761,-0.2631765604019168,8.720568656921388,-6.683871746063232,-6.226601123809815,-0.9720318913459778,12.152448654174805,-12.542445182800291,1.2085295915603638,0.7607582807540894,0.2927779853343964,1
0.3179664611816406,15.582933044433595,-10.69475269317627,1.802088260650636,-12.512110710144045,-1.6490963697433472,-0.3012775182723997,8.210015296936035,-6.392710685729981,-15.78353500366211,0.0808641616955422,-0.4083529135419699,0.4025642061840825,0.8152612742271284,1.0452401638031004,0.8196905295001429,-2.848872184753418,1.4236721992492676,0.0555064640939235,-0.2570110559463504,8.723774909973145,-6.679835796356201,-6.222770690917969,-1.0022732019424438,12.177001953125,-12.50832462310791,1.19783353805542,0.758987545967102,0.2927757799625397,1
0.31994509696960094,15.560179328918457,-10.697693824768066,1.801533222198488,-12.514300346374512,-1.6175129413604736,-0.3052801787853239,8.138589859008789,-6.403622150421144,-15.816819190979006,0.0817987202618243,-0.40781123047335,0.403278913136305,0.8150859389554826,1.045836091041565,0.8194606939898894,-2.8510086536407457,1.4146686792373655,0.0563939996063709,-0.250595718622208,8.726945877075195,-6.675630569458008,-6.219144344329834,-0.9697763919830322,12.15761661529541,-12.531817436218262,1.1868829727172852,0.7572158575057983,0.2929077744483948,1
0.32196235656737926,15.514661407470705,-10.70340347290039,1.8004014492034923,-12.518397331237791,-1.554707169532776,-0.3132120072841642,8.11412525177002,-6.33611297607422,-15.737486839294435,0.0836544880397924,-0.4067319381706268,0.4046812337106607,0.8147417727017459,1.0469744205474854,0.8190096060382301,-2.8552727699279785,1.3968504667282104,0.0582601428031921,-0.2368088215589526,8.733172416687013,-6.667134761810303,-6.212127208709718,-0.9853323698043824,12.149961471557615,-12.52880573272705,1.1644728183746338,0.7543054819107056,0.2937084138393402,1
0.3239772319793701,15.491897201538086,-10.70617389678955,1.7998248338699354,-12.520312309265137,-1.5234771966934204,-0.3171361684799193,8.173828125,-6.300415515899657,-15.69878387451172,0.0845754823100559,-0.4061943176172324,0.4053691334449412,0.8145729124992982,1.0475176572799687,0.8187878767596639,-2.857399702072144,1.3880823850631714,0.0592202730476856,-0.2301576882600788,8.736231803894043,-6.662846088409424,-6.208745002746582,-1.0150690078735352,12.0988187789917,-12.43255615234375,1.153522491455078,0.7528489828109741,0.2939744591712952,1
0.325930118560791,15.469129180908205,-10.708887100219728,1.7992410659790057,-12.522164344787598,-1.4921610355377195,-0.3210617601871489,8.128345489501951,-6.201945304870606,-15.639055252075195,0.0854921580425719,-0.4056583106078525,0.4060478547397329,0.8144062656986791,1.04804277420044,0.8185694853412078,-2.85952377319336,1.3794080018997192,0.0599722266197204,-0.2233439385890964,8.739253044128418,-6.658396720886231,-6.205596446990968,-0.9820848107337952,12.003371238708494,-12.39287281036377,1.1425726413726809,0.7513933777809143,0.2945087254047394,1
0.32794785499572754,15.469129180908205,-10.708887100219728,1.7992410659790057,-12.522164344787598,-1.4921610355377195,-0.3210617601871489,8.128345489501951,-6.201945304870606,-15.639055252075195,0.0854921580425719,-0.4056583106078525,0.4060478547397329,0.8144062656986791,1.04804277420044,0.8185694853412078,-2.85952377319336,1.3794080018997192,0.0599722266197204,-0.2233439385890964,8.739253044128418,-6.658396720886231,-6.205596446990968,-0.9820848107337952,12.003371238708494,-12.39287281036377,1.1425726413726809,0.7513933777809143,0.2945087254047394,1
0.3299911022186315,15.40080795288086,-10.716683387756348,1.7974468469619764,-12.527324676513672,-1.397729754447937,-0.3328563570976255,8.285330772399902,-6.330562114715577,-15.870660781860352,0.0882172086459265,-0.4040578434566369,0.4080342601792665,0.813918316392899,1.0495203733444216,0.8179290930377396,-2.8658785820007324,1.3545501232147217,0.0623609945178031,-0.2039743065834048,8.748102188110353,-6.644108772277832,-6.197477340698242,-1.074339747428894,12.14512825012207,-12.498714447021484,1.1112440824508667,0.7473412156105042,0.2957087159156799,1
0.3319840431213379,15.37802848815918,-10.71916675567627,1.7968344688415538,-12.528905868530272,-1.3661030530929563,-0.3367969095706938,8.243851661682129,-6.368704319000245,-15.853280067443848,0.0891173438888494,-0.4035272594745489,0.4086797549510877,0.8137596130137423,1.0499805212020872,0.8177211920367644,-2.867990732192993,1.346390962600708,0.0630158856511115,-0.1977293789386753,8.750978469848633,-6.639042854309082,-6.195195198059082,-1.0686165094375608,12.183152198791506,-12.595307350158691,1.101056694984436,0.7458860874176025,0.2961086630821228,1
0.3339817523956299,15.35524616241455,-10.721592903137209,1.7962149381637584,-12.530425071716309,-1.3343935012817385,-0.3407371342182158,8.189698219299316,-6.360069274902345,-15.866758346557615,0.0900135147076453,-0.4029976872021866,0.4093173501919557,0.8136029363955743,1.0504248142242432,0.8175151983844202,-2.870100498199463,1.3386064767837524,0.0638166069984435,-0.1915002465248111,8.753829002380371,-6.633830547332764,-6.193129062652588,-1.0449867248535156,12.158714294433596,-12.62087631225586,1.0911251306533811,0.7447470426559448,0.2965083718299866,1
0.3359735012054408,15.332460975646972,-10.723960876464844,1.7955882549285902,-12.531883239746096,-1.30260169506073,-0.3446767330169676,8.212061882019043,-6.4345698356628445,-16.116735458374027,0.0909057521914728,-0.4024696717186479,0.4099470550227745,0.8134480436041017,1.0508540868759155,0.8173120657550257,-2.8722069263458248,1.3308193683624268,0.0643529146909713,-0.1855858564376834,8.756643295288086,-6.628475666046143,-6.191281795501709,-1.0388712882995603,12.196666717529297,-12.717308044433596,1.0814465284347534,0.7432910799980164,0.2969080805778503,1
0.33800029754639027,15.309672927856443,-10.726271629333496,1.7949544191360487,-12.533236503601074,-1.2707836627960205,-0.3486408293247221,8.206796646118164,-6.306286811828612,-16.044536590576172,0.0917939497595136,-0.4019430028603164,0.4105686581000034,0.8132951925501234,1.051267385482788,0.8171113173114226,-2.8743104934692383,1.322663426399231,0.0649700388312339,-0.17933464050293,8.759425163269043,-6.622973442077638,-6.189583778381348,-0.9977376461029052,12.110334396362305,-12.671116828918455,1.0712605714797974,0.7418352365493774,0.2973078191280365,1
0.3399770259857178,15.264091110229492,-10.730719566345217,1.7936651706695568,-12.535693168640137,-1.207569241523743,-0.3565013110637663,8.333471298217772,-6.318787097930907,-16.074920654296875,0.0935577217048886,-0.4008937267089272,0.4117867889797099,0.8129961949582535,1.052043914794922,0.8167164961444301,-2.878509044647217,1.30612313747406,0.0665614679455757,-0.1664147526025775,8.764921188354492,-6.6119489669799805,-6.186346530914308,-1.0775871276855469,12.155403137207031,-12.609590530395508,1.0503780841827393,0.739237368106842,0.2979732751846313,1
0.3419446945190394,15.241297340393064,-10.732857704162598,1.7930098772048964,-12.53681182861328,-1.1761558055877686,-0.3603884875774382,8.263875007629395,-6.3833861351013175,-15.918049812316896,0.0944332685807935,-0.4003714729365094,0.4123833591154337,0.812849928688235,1.0524077415466309,0.8165229002581995,-2.880603313446045,1.2977397441864014,0.0672868862748145,-0.1600653082132342,8.767636299133299,-6.60642671585083,-6.1848344802856445,-1.117668628692627,12.178632736206056,-12.578880310058596,1.039937973022461,0.7377821207046509,0.2982389628887176,1
0.3439631462097168,15.218501663208007,-10.734938621520996,1.7923475503921522,-12.537856101989744,-1.1446821689605713,-0.3642817139625547,8.245509147644043,-6.248226165771484,-15.804977416992188,0.0953045092281986,-0.3998505865370885,0.4129718345073571,0.8127058649169124,1.05275559425354,0.8163312117206032,-2.8826942443847656,1.2893569469451904,0.0679996237158775,-0.1537131518125536,8.770317077636719,-6.600752353668213,-6.183523178100586,-1.0948609113693235,12.079779624938965,-12.539423942565918,1.0294977426528928,0.7363262772560121,0.2985045611858368,1
0.3459486961364746,15.150103187561037,-10.740838050842283,1.7903181314468395,-12.540572166442873,-1.0498695373535156,-0.3759772181510924,8.217747688293457,-6.190289020538331,-15.90377426147461,0.0978938847661486,-0.3982960902367249,0.4146871747499512,0.8122878547198857,1.0536972284317014,0.8157690207110808,-2.8889524936676025,1.2650532722473145,0.0704214721918106,-0.1341971755027773,8.778197288513184,-6.5828490257263175,-6.1808037757873535,-1.0248621702194214,12.012340545654297,-12.60993194580078,0.9984325170516968,0.732903778553009,0.2995693683624268,1
0.3541138172149587,15.150103187561037,-10.740838050842283,1.7903181314468395,-12.540572166442873,-1.0498695373535156,-0.3759772181510924,8.217747688293457,-6.190289020538331,-15.90377426147461,0.0978938847661486,-0.3982960902367249,0.4146871747499512,0.8122878547198857,1.0536972284317014,0.8157690207110808,-2.8889524936676025,1.2650532722473145,0.0704214721918106,-0.1341971755027773,8.778197288513184,-6.5828490257263175,-6.1808037757873535,-1.0248621702194214,12.012340545654297,-12.60993194580078,0.9984325170516968,0.732903778553009,0.2995693683624268,1
0.3551137447357178,15.12730083465576,-10.74268913269043,1.7896274328231825,-12.541349411010742,-1.0181244611740112,-0.3798741102218627,8.311504364013674,-6.304059982299807,-16.088407516479492,0.0987490438991521,-0.3977805015070648,0.4152428703844543,0.8121530998184213,1.0539784431457522,0.8155854384051726,-2.89103364944458,1.2574200630187988,0.0713979303836822,-0.1278639733791354,8.78077220916748,-6.5765929222106925,-6.180305004119872,-1.0729529857635498,12.105664253234863,-12.64693546295166,0.9885013103485109,0.732077956199646,0.2998346388339996,1
0.35611438751220703,15.104497528076172,-10.744482040405272,1.7889297008514418,-12.542059898376465,-0.9863131046295166,-0.3837709724903105,8.244842529296875,-6.323405742645265,-15.897102355957031,0.0996003942797453,-0.3972656954935197,0.4157909790753561,0.8120206834575867,1.0542436838150024,0.8154028097735808,-2.893113136291504,1.2499289512634275,0.0724204927682876,-0.1217715516686442,8.783328056335451,-6.5701966285705575,-6.179997444152832,-1.1383719444274902,12.184849739074709,-12.692397117614744,0.978825032711029,0.7312537431716919,0.2999656796455383,1
0.3579716682434082,15.081692314147949,-10.746217727661133,1.7882248163223282,-12.542712211608888,-0.954426646232605,-0.3876632153987884,8.307669639587402,-6.299907684326175,-16.083181381225586,0.1004479148706156,-0.3967522531502234,0.4163315637033961,0.8118903220772197,1.0544940233230593,0.8152220884906214,-2.8951897621154785,1.242436170578003,0.0731882527470588,-0.1159996762871745,8.785859107971191,-6.563663005828857,-6.179895877838135,-1.1061230897903442,12.170248031616213,-12.711275100708008,0.9694027304649352,0.7301145792007446,0.3000967800617218,1
0.3599705696105957,15.05888614654541,-10.747895240783691,1.7875128984451307,-12.543298721313477,-0.9224751591682434,-0.3915547430515288,8.316248893737793,-6.336512088775637,-16.094673156738278,0.1012916701902646,-0.3962396587623609,0.4168647667024666,0.8117622168197116,1.0547289848327637,0.8150423208819801,-2.8972644805908203,1.2351770401000977,0.0740419030189514,-0.1099950745701792,8.788368225097656,-6.55699634552002,-6.179982662200928,-1.0913604497909546,12.14147663116455,-12.738018035888672,0.9599807262420654,0.7292893528938293,0.3003619909286499,1
0.36200118064880016,15.013270950317384,-10.751076698303224,1.7860680818557757,-12.54433250427246,-0.8589451313018799,-0.3992298245429992,8.25838565826416,-6.23865032196045,-15.877726554870604,0.1029687030650632,-0.3952180646746256,0.4179096697552628,0.8115119441320563,1.055155634880066,0.8146880308734343,-2.9014072418212886,1.2209410667419434,0.0755937620997428,-0.0987905114889147,8.793384552001951,-6.543715476989746,-6.180351257324219,-1.1258938312530518,12.132222175598145,-12.737277030944824,0.9419013857841492,0.7273273468017578,0.3006237149238586,1
0.3639798164367676,14.990461921691896,-10.752580642700195,1.7853353023529066,-12.544779777526855,-0.8273677229881287,-0.4030127227306365,8.247803688049316,-6.2491450309753445,-16.01744270324707,0.1038017873222934,-0.3947089502974958,0.4184212574447626,0.8113899708660997,1.0553468465805054,0.8145130316363738,-2.903475284576416,1.2140544652938845,0.0763289779424667,-0.0931152701377871,8.795886039733888,-6.537106513977051,-6.180625915527344,-1.1111664772033691,12.10403823852539,-12.763373374938965,0.9329870343208312,0.7265027761459351,0.3008886873722076,1
0.36597490310668945,14.967652893066404,-10.754027366638184,1.7845957279205336,-12.545162200927734,-0.7957275509834291,-0.4067935347557067,8.280414581298826,-6.23943376541138,-16.012157440185547,0.1046314762093666,-0.3942009218988397,0.4189259961016763,0.8112699286615842,1.0555242300033572,0.8143394629107878,-2.905541181564331,1.2073078155517578,0.0771134495735168,-0.0876813381910326,8.798369407653809,-6.530372142791747,-6.181077480316162,-1.1538876295089722,12.056612968444824,-12.666925430297852,0.9243268370628356,0.7256777286529541,0.3010194897651672,1
0.3679840564727819,14.9448429107666,-10.755416870117188,1.7838492393493666,-12.545445442199709,-0.7640726566314697,-0.4105930626392364,8.210817337036133,-6.175244331359862,-15.83806324005127,0.1054575205573265,-0.3936936164919021,0.4194238346099096,0.8111520786218497,1.0556871891021729,0.8141663710223601,-2.9076051712036133,1.2001923322677612,0.0779685005545616,-0.0819056853652003,8.800832748413086,-6.523505687713622,-6.1816487312316895,-1.130587100982666,12.036149978637695,-12.688471794128418,0.9151580929756165,0.7248523831367493,0.3011502921581268,1
0.3699910640716553,14.899222946166992,-10.75802230834961,1.7823352813720716,-12.545723915100098,-0.7007123231887817,-0.4182425439357757,8.265008926391603,-6.246422767639161,-15.928586959838867,0.107098037056363,-0.3926828249798701,0.4203961474335242,0.8109237255423922,1.0559647083282473,0.8138244787799285,-2.911726474761963,1.1849983930587769,0.0799472704529762,-0.0695731192827227,8.805706024169922,-6.509359836578369,-6.183183193206787,-1.1307908296585083,12.058564186096191,-12.670016288757324,0.89555424451828,0.7232023477554321,0.3012781143188477,1
0.37197780609131215,14.876412963867187,-10.759238243103027,1.7815678119659435,-12.545740127563477,-0.6689796447753906,-0.4220790863037108,8.348267555236816,-6.3277339935302725,-16.046648025512695,0.1079122757051943,-0.3921792161341841,0.4208702649173179,0.8108135564313967,1.05607807636261,0.8136552015887664,-2.9137840270996094,1.1771490573883057,0.0809271037578582,-0.0631099715828898,8.808115005493164,-6.5020751953125,-6.184188365936277,-1.1780388355255127,12.154354095458984,-12.708152770996096,0.8853707313537598,0.7223782539367676,0.3014091253280639,1
0.3739404678344691,14.853602981567384,-10.76039695739746,1.7807934284210218,-12.545672416687012,-0.6372160315513611,-0.4259243607521057,8.336726188659668,-6.235845088958741,-16.025999069213867,0.1087226164301348,-0.3916764523410784,0.4213365790861015,0.8107061344791429,1.0561745166778564,0.8134864012347629,-2.915840148925781,1.169303297996521,0.0821285620331764,-0.0563150681555273,8.810513496398926,-6.494647979736327,-6.185348510742188,-1.1486368179321291,12.06785488128662,-12.659192085266112,0.8749331831932068,0.7218678593635559,0.3015401363372803,1
0.37597107887268066,14.830792999267578,-10.761497497558594,1.7800120115280165,-12.54553508758545,-0.6054030656814575,-0.4297695159912108,8.277006149291992,-6.2890715599060085,-16.097942352294922,0.1095290534313752,-0.3911747537369295,0.4217945888373899,0.8106016428066111,1.056252837181091,0.8133185545550751,-2.9178950786590576,1.1614607572555542,0.0833171531558036,-0.0495166108012202,8.812895774841309,-6.4870781898498535,-6.186686038970947,-1.1313369274139404,12.115373611450195,-12.749550819396973,0.8644968271255493,0.7213588356971741,0.3016710877418518,1
0.3779821395873988,14.807983016967771,-10.762539863586426,1.7792236804962172,-12.545329093933104,-0.5735413432121277,-0.4336141347885131,8.302830696105957,-6.2372374534606925,-16.14278221130371,0.1103314061040808,-0.3906742448518785,0.4222442053219329,0.8105001211033592,1.056313037872315,0.8131516615497034,-2.9199483394622803,1.153618097305298,0.0844917893409729,-0.0427141822874548,8.815267562866211,-6.479366779327393,-6.188201427459718,-1.116703987121582,12.088990211486816,-12.773876190185549,0.8540595769882202,0.7208492755889893,0.3018020391464233,1
0.379974365234375,14.762364959716797,-10.76445484161377,1.7776263952255262,-12.544883728027346,-0.5107399821281433,-0.441137671470642,8.252069473266603,-6.154633045196532,-15.884389877319336,0.111924679405586,-0.389675952205807,0.4231203581676433,0.8103053010542012,1.0563833713531496,0.8128193060504358,-2.9240505695343013,1.138074278831482,0.0866339206695556,-0.0296718757599594,8.820127487182617,-6.46436882019043,-6.1910834312438965,-1.1234081983566284,11.967334747314451,-12.621439933776855,0.8336948752403259,0.7195175886154175,0.3019296526908874,1
0.381976842880249,14.739556884765625,-10.765326499938965,1.7768175601959242,-12.544568061828612,-0.479254186153412,-0.4448906481266021,8.325726509094237,-6.057321071624759,-15.761256217956545,0.1127152771477355,-0.3891789044759893,0.423546634924256,0.8102118825669721,1.0563939809799197,0.8126547972308562,-2.9260978698730464,1.1303727626800537,0.0876021981239318,-0.0234333928674462,8.822530746459961,-6.456662654876709,-6.192805290222168,-1.1594929695129397,11.931897163391112,-12.518987655639648,0.8237679600715637,0.7186943888664246,0.3019263744354248,1
0.38397383689880016,14.739556884765625,-10.765326499938965,1.7768175601959242,-12.544568061828612,-0.479254186153412,-0.4448906481266021,8.325726509094237,-6.057321071624759,-15.761256217956545,0.1127152771477355,-0.3891789044759893,0.423546634924256,0.8102118825669721,1.0563939809799197,0.8126547972308562,-2.9260978698730464,1.1303727626800537,0.0876021981239318,-0.0234333928674462,8.822530746459961,-6.456662654876709,-6.192805290222168,-1.1594929695129397,11.931897163391112,-12.518987655639648,0.8237679600715637,0.7186943888664246,0.3019263744354248,1
0.3859751224517822,14.716748809814453,-10.766140937805176,1.7760019302368175,-12.544204711914062,-0.4476931393146515,-0.4486287832260131,8.252118110656737,-6.078052520751952,-15.99258041381836,0.1135021593478519,-0.3886830671651814,0.4239653589479458,0.8101210449893159,1.0563886165618896,0.8124912420855925,-2.9281432628631587,1.122898817062378,0.0884152054786682,-0.017290720716119,8.824919700622559,-6.448824405670166,-6.194736003875732,-1.0947246551513672,11.916522979736328,-12.668027877807615,0.8140934109687805,0.7178680896759033,0.3020572662353516,1
0.3879745006561208,14.716748809814453,-10.766140937805176,1.7760019302368175,-12.544204711914062,-0.4476931393146515,-0.4486287832260131,8.252118110656737,-6.078052520751952,-15.99258041381836,0.1135021593478519,-0.3886830671651814,0.4239653589479458,0.8101210449893159,1.0563886165618896,0.8124912420855925,-2.9281432628631587,1.122898817062378,0.0884152054786682,-0.017290720716119,8.824919700622559,-6.448824405670166,-6.194736003875732,-1.0947246551513672,11.916522979736328,-12.668027877807615,0.8140934109687805,0.7178680896759033,0.3020572662353516,1
0.38997721672058105,14.716748809814453,-10.766140937805176,1.7760019302368175,-12.544204711914062,-0.4476931393146515,-0.4486287832260131,8.252118110656737,-6.078052520751952,-15.99258041381836,0.1135021593478519,-0.3886830671651814,0.4239653589479458,0.8101210449893159,1.0563886165618896,0.8124912420855925,-2.9281432628631587,1.122898817062378,0.0884152054786682,-0.017290720716119,8.824919700622559,-6.448824405670166,-6.194736003875732,-1.0947246551513672,11.916522979736328,-12.668027877807615,0.8140934109687805,0.7178680896759033,0.3020572662353516,1
0.3919751644134415,14.693941688537596,-10.766897201538086,1.775179505348207,-12.543780326843262,-0.4160766899585725,-0.4523601233959197,8.313885688781737,-6.157886505126952,-16.025936126708984,0.1142853343229342,-0.3881882442766459,0.4243768430912449,0.8100327428024247,1.0563678741455078,0.8123281637774866,-2.9301867485046387,1.1155660152435305,0.0892834961414337,-0.011387372389436,8.827291488647461,-6.440855979919434,-6.19684648513794,-1.1501893997192385,12.007044792175291,-12.710347175598145,0.8046733736991882,0.7170428633689879,0.3020539581775665,1
0.3940262794494629,14.648332214355468,-10.768239974975586,1.773513197898866,-12.54215145111084,-0.3535526394844056,-0.4601809978485106,8.365944862365723,-6.182024002075196,-15.80751895904541,0.1158299453818501,-0.3871973647010748,0.4251788088392226,0.8098670292309967,1.056282639503479,0.8119838873492641,-2.9342525005340576,1.0961172580718994,0.0982011258602142,-0.0013737432891505,8.832151412963867,-6.424280643463135,-6.200519561767577,-1.1676390171051023,12.05556583404541,-12.546709060668944,0.7825350165367126,0.7160243391990662,0.2938635349273681,1
0.3960092067718506,14.625529861450197,-10.76882553100586,1.772669315338136,-12.541181564331056,-0.3223079442977906,-0.4641218781471253,8.350236892700195,-6.235007286071777,-15.807991027832031,0.1165910027476728,-0.3867014248765837,0.4255681260173912,0.8097902914920366,1.056215047836304,0.8118026892291459,-2.9362752437591566,1.0855892896652222,0.1027550846338272,0.0044534136541185,8.834634780883789,-6.415657043457031,-6.202535629272461,-1.1700681447982788,12.051295280456545,-12.427252769470217,0.7703240513801575,0.7155160307884216,0.2898357510566711,1
0.3979554176330531,14.602729415893556,-10.769354820251465,1.7718182802200328,-12.54011344909668,-0.2910694479942322,-0.4680795967578888,8.261448860168457,-6.192900180816651,-15.795825004577637,0.117344482198511,-0.3862053270718411,0.4259490384491438,0.8097179351373821,1.056129217147827,0.8116157690631316,-2.9382915496826167,1.074553608894348,0.1072995439171791,0.0108764320611951,8.837153434753418,-6.406801700592041,-6.204691410064697,-1.147642731666565,12.034778594970703,-12.44533920288086,0.7573494911193848,0.7150070667266846,0.285942405462265,1
0.3999295234680176,14.579930877685548,-10.769826889038086,1.7709599733352672,-12.538973808288574,-0.2597990036010743,-0.4720367193222045,8.369243621826174,-6.1960930824279785,-15.811118125915527,0.1180901426176515,-0.385709193428239,0.4263211616136294,0.8096501735205679,1.056024312973023,0.8114231268512171,-2.9403011798858643,1.0633805990219116,0.1117618381977081,0.0175521392375228,8.839701652526855,-6.397713661193848,-6.2070393562316895,-1.181424617767334,12.075723648071287,-12.408632278442385,0.7441210746765137,0.7144982218742371,0.2821833193302154,1
0.4019834995269811,14.534341430664062,-10.770602226257324,1.7692220211029066,-12.536591529846191,-0.1977313607931137,-0.479856014251709,8.284873008728027,-6.138357162475589,-15.54366683959961,0.1195584469996528,-0.3847173708342947,0.4270382517368835,0.809528661557381,1.055755376815796,0.8110221068011678,-2.9443013668060303,1.0408505201339722,0.1202951073646545,0.0315587818622586,8.844978332519531,-6.379302978515625,-6.211958408355713,-1.1976853609085083,12.02886962890625,-12.322068214416506,0.7171556949615479,0.7134786248207092,0.2752022743225097,1
0.4039843082428014,14.51154956817627,-10.77090549468994,1.7683426141738905,-12.535375595092772,-0.1668965220451355,-0.4837001264095306,8.351594924926758,-6.0511326789855975,-15.541155815124512,0.1202815146888886,-0.3842217437929715,0.4273830943479572,0.8094749529703804,1.0555907487869267,0.8108142058001917,-2.946292877197265,1.02986478805542,0.1242971494793892,0.0385458730161187,8.847700119018555,-6.36998987197876,-6.2145752906799325,-1.1890313625335691,11.933833122253418,-12.275821685791016,0.7039288878440857,0.7129704356193542,0.2719800174236297,1
0.4059784412384033,14.488760566711424,-10.77115249633789,1.7674561738967909,-12.534109115600586,-0.136003315448761,-0.4875287115573883,8.358463287353517,-6.068211555480957,-15.70700740814209,0.1209976674459573,-0.3837264684194899,0.4277191779110106,0.8094256400399441,1.0554070472717283,0.8106020132647918,-2.9482789039611816,1.0189675092697144,0.1280733346939087,0.0456825867295262,8.850444793701172,-6.360458850860598,-6.217418193817139,-1.1759973764419556,11.911784172058104,-12.29640293121338,0.6906992197036743,0.7124590277671814,0.2690261602401733,1
0.4079689979553187,14.465973472595216,-10.771343231201172,1.7665628194808969,-12.53279972076416,-0.1050426065921784,-0.4913370013237,8.273253440856934,-6.028818130493165,-15.646529197692873,0.1217067582866253,-0.383231396907048,0.428046470924236,0.8093808622282471,1.0552040338516238,0.8103850523578089,-2.9502594470977783,1.0083023309707642,0.1316968202590942,0.0527264475822446,8.85321044921875,-6.350717067718506,-6.220494270324707,-1.1630160808563232,11.889985084533691,-12.316664695739744,0.677724301815033,0.7119485139846802,0.2662064731121063,1
0.40996527671813965,14.465973472595216,-10.771343231201172,1.7665628194808969,-12.53279972076416,-0.1050426065921784,-0.4913370013237,8.273253440856934,-6.028818130493165,-15.646529197692873,0.1217067582866253,-0.383231396907048,0.428046470924236,0.8093808622282471,1.0552040338516238,0.8103850523578089,-2.9502594470977783,1.0083023309707642,0.1316968202590942,0.0527264475822446,8.85321044921875,-6.350717067718506,-6.220494270324707,-1.1630160808563232,11.889985084533691,-12.316664695739744,0.677724301815033,0.7119485139846802,0.2662064731121063,1
0.41197443008423207,14.465973472595216,-10.771343231201172,1.7665628194808969,-12.53279972076416,-0.1050426065921784,-0.4913370013237,8.273253440856934,-6.028818130493165,-15.646529197692873,0.1217067582866253,-0.383231396907048,0.428046470924236,0.8093808622282471,1.0552040338516238,0.8103850523578089,-2.9502594470977783,1.0083023309707642,0.1316968202590942,0.0527264475822446,8.85321044921875,-6.350717067718506,-6.220494270324707,-1.1630160808563232,11.889985084533691,-12.316664695739744,0.677724301815033,0.7119485139846802,0.2662064731121063,1
0.4139795303344691,14.465973472595216,-10.771343231201172,1.7665628194808969,-12.53279972076416,-0.1050426065921784,-0.4913370013237,8.273253440856934,-6.028818130493165,-15.646529197692873,0.1217067582866253,-0.383231396907048,0.428046470924236,0.8093808622282471,1.0552040338516238,0.8103850523578089,-2.9502594470977783,1.0083023309707642,0.1316968202590942,0.0527264475822446,8.85321044921875,-6.350717067718506,-6.220494270324707,-1.1630160808563232,11.889985084533691,-12.316664695739744,0.677724301815033,0.7119485139846802,0.2662064731121063,1
0.41597604751586914,14.465973472595216,-10.771343231201172,1.7665628194808969,-12.53279972076416,-0.1050426065921784,-0.4913370013237,8.273253440856934,-6.028818130493165,-15.646529197692873,0.1217067582866253,-0.383231396907048,0.428046470924236,0.8093808622282471,1.0552040338516238,0.8103850523578089,-2.9502594470977783,1.0083023309707642,0.1316968202590942,0.0527264475822446,8.85321044921875,-6.350717067718506,-6.220494270324707,-1.1630160808563232,11.889985084533691,-12.316664695739744,0.677724301815033,0.7119485139846802,0.2662064731121063,1
0.41797852516175027,14.465973472595216,-10.771343231201172,1.7665628194808969,-12.53279972076416,-0.1050426065921784,-0.4913370013237,8.273253440856934,-6.028818130493165,-15.646529197692873,0.1217067582866253,-0.383231396907048,0.428046470924236,0.8093808622282471,1.0552040338516238,0.8103850523578089,-2.9502594470977783,1.0083023309707642,0.1316968202590942,0.0527264475822446,8.85321044921875,-6.350717067718506,-6.220494270324707,-1.1630160808563232,11.889985084533691,-12.316664695739744,0.677724301815033,0.7119485139846802,0.2662064731121063,1
0.4200057983398402,14.397627449035644,-10.771576881408691,1.7638416290283216,-12.528608322143556,-0.011771522462368,-0.5026386976242065,8.310075759887695,-6.051569938659669,-15.694010734558104,0.1237948069104294,-0.3817490594358871,0.4289760888244137,0.8092725230839942,1.0544807910919192,0.8097112814532683,-2.9561712741851807,0.977845311164856,0.1419504731893539,0.0733895525336263,8.861628532409668,-6.320274829864503,-6.2310729026794425,-1.2017669677734375,11.93460750579834,-12.402216911315918,0.6403322219848633,0.7107377052307129,0.2584182322025299,1
0.4219486713409424,14.374850845336914,-10.771541595458984,1.7629209756851207,-12.52711582183838,0.019433308392763,-0.5063687562942505,8.340520858764647,-6.050734519958497,-15.764859199523926,0.1244784223017742,-0.381255667562265,0.4292690073795088,0.8092449305595458,1.0542021989822383,0.8094790617572234,-2.9581332206726074,0.9681114554405212,0.1451879441738128,0.0803937315940854,8.864479064941406,-6.309737682342527,-6.235016345977782,-1.1888834238052368,11.91378402709961,-12.42147159576416,0.6281216740608215,0.7105438709259033,0.2561350166797638,1
0.42398715019226074,14.352077102661132,-10.771449089050291,1.761993527412416,-12.525582313537598,0.0507025718688964,-0.5100757479667664,8.450151443481445,-6.15913486480713,-15.949583053588867,0.1251559686946619,-0.3807623497919258,0.4295534782478965,0.8092217408140774,1.053904414176941,0.8092425505267542,-2.960091590881348,0.9586084485054016,0.1482733637094497,0.0873018726706502,8.867347717285156,-6.299014091491699,-6.239173412322997,-1.2445591688156128,12.0089693069458,-12.46341609954834,0.6161653399467468,0.710349440574646,0.2539860606193542,1
0.4259634017944336,14.329307174682617,-10.77130126953125,1.7610589265823378,-12.523645401000977,0.0814737156033515,-0.5140015482902527,8.386319160461426,-6.099722385406495,-15.64179515838623,0.1258227973058238,-0.3802671625847322,0.4298315964746559,0.8092035018522491,1.0535938739776611,0.8089926878558558,-2.9620373249053955,0.9464554786682128,0.1567045748233795,0.0911518707871435,8.870309829711914,-6.287990570068359,-6.2428388595581055,-1.2385880947113037,11.953347206115724,-12.264927864074709,0.6037039756774902,0.7101549506187439,0.245135948061943,1
0.42792725563049316,14.283777809143064,-10.770837783813477,1.7591685056686412,-12.51957893371582,0.1424111872911452,-0.5217952728271484,8.281000137329103,-6.079467773437501,-15.5654296875,0.1271213027481049,-0.3792697556222524,0.430367560360122,0.8091837800200509,1.05293083190918,0.8084471861468718,-2.965888500213623,0.920622706413269,0.1740800440311432,0.0994267314672467,8.876585960388184,-6.265424728393555,-6.250179767608643,-1.2042317390441897,11.893494606018065,-12.076011657714846,0.5772565007209778,0.7094498872756958,0.2267518639564514,1
0.4299602508544922,14.261018371582033,-10.77052402496338,1.7582128047943129,-12.517501831054688,0.1726555824279784,-0.5256278514862059,8.283740043640138,-5.915123462677005,-15.33754825592041,0.1277534359622869,-0.3787682566961365,0.430624545662618,0.8091824071197194,1.0525765419006348,0.8081534544574187,-2.96779465675354,0.907595992088318,0.1825384497642517,0.104259371757507,8.879887580871582,-6.253885746002197,-6.253962516784668,-1.1811357736587524,11.817042350769045,-12.017532348632812,0.5635254979133606,0.7092576026916504,0.2180297821760177,1
