time-since-start [s],position_x [m],position_y [m],position_z [m],velocity_x [m/s],velocity_y [m/s],velocity_z [m/s],acceleration_x [m/s/s],acceleration_y [m/s/s],acceleration_z [m/s/s],rotation_w [quaternion],rotation_x [quaternion],rotation_y [quaternion],rotation_z [quaternion],euler_x [rad],euler_y [rad],euler_z [rad],omega_x [rad/s],omega_y [rad/s],omega_z [rad/s],drone_velocity_x [m/s],drone_velocity_y [m/s],drone_velocity_z [m/s],drone_acceleration_x [m/s/s],drone_acceleration_y [m/s/s],drone_acceleration_z [m/s/s],drone_omega_x [rad],drone_omega_y [rad],drone_omega_z [rad],flipped
0.0,15.654561614990234,-11.459227561950684,1.4821949005126964,-11.633496284484863,-3.4217689037323,0.0546071603894237,7.16886281967163,-6.4853997230529785,-16.859502792358402,0.0388832133324535,-0.4400418549119709,0.3999778063742291,0.8030373690275157,1.1221565008163452,0.8298719565020959,-2.6982033252716064,1.841300368309021,-0.3097791075706482,-0.0739773064851764,8.044142723083496,-7.171787261962893,-5.560949802398682,0.0807335153222084,12.387539863586426,-14.073073387145994,1.4934502840042114,0.8794642090797424,0.6986446380615234,1
0.0019197463989257812,15.633395767211914,-11.4653902053833,1.4822826385498062,-11.641436576843262,-3.3892362117767334,0.0482798554003242,7.176674842834473,-6.330857753753662,-16.81185531616211,0.0403115572107077,-0.4395952204663083,0.4007546007160073,0.8028242463350114,1.1226757764816284,0.8303173224078577,-2.701171636581421,1.843324065208435,-0.3038164675235748,-0.0689018815755847,8.044118881225586,-7.174508571624756,-5.554100036621094,0.1468078047037124,12.284279823303224,-14.041145324707031,1.490121603012085,0.8868372440338135,0.6986311078071594,1
0.003884315490715551,15.612215614318847,-11.471492767333984,1.4823589324951183,-11.64928913116455,-3.3566074371337886,0.0419333800673488,7.234228610992432,-6.467048168182372,-17.037443161010742,0.041740853274337,-0.4391418999585601,0.4015273010596834,0.8026131816587879,1.1231732368469245,0.8307574431048792,-2.704159021377563,1.8453449010849,-0.2978715896606445,-0.0638055056333545,8.044157981872559,-7.177134037017822,-5.547240257263184,0.0990277528762817,12.351232528686523,-14.074981689453123,1.4867922067642212,0.8942093253135681,0.6986175179481506,1
0.005927324295051051,15.548590278625488,-11.4894437789917,1.482518076896669,-11.672343254089355,-3.258112907409668,0.0227994825690988,7.156639575958253,-6.423346519470216,-16.93769645690918,0.0460368917465146,-0.4377436071784955,0.4038235069974543,0.8019898466744799,1.1245447397232051,0.8320501486407679,-2.713233470916748,1.8513870239257808,-0.280708909034729,-0.0489685200154785,8.044641494750978,-7.184443950653076,-5.526653289794922,0.1567057371139526,12.363957405090332,-14.165230751037598,1.4773129224777222,0.9156945943832396,0.6985766887664795,1
0.007914543151855469,15.527353858947755,-11.49530792236328,1.4825478792190565,-11.679869651794435,-3.2250680923461914,0.0163967926055196,7.134807109832763,-6.491924762725831,-17.111957550048828,0.0474714387329659,-0.4372651705236374,0.4045817109381163,0.8017850536932846,1.1249629259109497,0.8324721495257781,-2.716294288635254,1.853392004966736,-0.275398313999176,-0.044369172304869,8.044916152954103,-7.1866984367370605,-5.519808769226074,0.1694533079862594,12.389954566955565,-14.26441478729248,1.4744921922683716,0.9224358201026917,0.6985630393028259,1
0.009916305541992188,15.50610408782959,-11.501111030578612,1.4825659990310682,-11.687304496765137,-3.1919286251068115,0.0099778193980459,7.219859600067138,-6.567572116851808,-17.1690673828125,0.0489071052587292,-0.436780770072625,0.4053362013946509,0.8015816975136917,1.1253618001937868,0.8328898588763641,-2.719372510910034,1.8553959131240845,-0.2701034247875213,-0.0397512689232829,8.045248031616211,-7.188864231109619,-5.512955665588379,0.1326556354761123,12.46448040008545,-14.29679012298584,1.4716717004776,0.9291775822639464,0.6985494494438171,1
0.011918067932128906,15.484840965270994,-11.506854057312012,1.4825724363327042,-11.694664001464846,-3.158677339553833,0.00355034833774,7.120109081268311,-6.633766174316407,-17.148832321166992,0.050344087462866,-0.4362904414207005,0.4060874362563691,0.8013795091572973,1.1257426738739016,0.8333032766925257,-2.7224678993225093,1.8573945760726929,-0.2651041150093078,-0.0354064293205741,8.045634269714355,-7.1909446716308585,-5.506124019622803,0.1553790271282196,12.497300148010256,-14.393105506896973,1.4691054821014404,0.9356041550636292,0.698535680770874,1
0.013945817947387695,15.463564491271972,-11.51253604888916,1.4825671911239635,-11.70193099975586,-3.1253318786621094,-0.0028923470526929,7.1825995445251465,-6.613362312316897,-17.143671035766598,0.0517819555016194,-0.4357942172942113,0.406835423503927,0.8011784866306224,1.1261059045791628,0.8337119261371062,-2.7255795001983643,1.8593887090682983,-0.2601205706596374,-0.0310435481369499,8.046072959899902,-7.192939281463622,-5.49928617477417,0.110659159719944,12.564531326293944,-14.430011749267578,1.4665374755859375,0.9420286417007446,0.6985219120979309,1
0.015930652618408203,15.442275619506836,-11.518158912658691,1.4825503826141369,-11.70908260345459,-3.0925440788269043,-0.0092238187789913,7.187985897064206,-6.512627601623536,-17.11891746520996,0.0532213236529344,-0.4352925246558546,0.4075800336416583,0.8009784172273473,1.1264516115188603,0.8341172377215784,-2.728707790374756,1.861230492591858,-0.2554545104503632,-0.0267135761678222,8.046626091003418,-7.195348739624023,-5.492014408111572,0.1352562457323074,12.433606147766112,-14.269291877746582,1.4639712572097778,0.9481388926506042,0.6986421346664429,1
0.01788449287415972,15.42097339630127,-11.523721694946287,1.4825221300125135,-11.71614933013916,-3.0596539974212646,-0.0155658964067693,7.197155952453612,-6.441519260406495,-17.03754997253418,0.054661623292827,-0.4347851909089786,0.4083212247407548,0.8007794466215064,1.1267796754837036,0.8345182577716272,-2.7318520545959486,1.86322021484375,-0.250777930021286,-0.0226110965013507,8.047226905822754,-7.1976728439331055,-5.484747886657715,0.1579847037792205,12.380861282348633,-14.308954238891602,1.46165931224823,0.9542490839958192,0.6986284255981445,1
0.019913673400878906,15.39965877532959,-11.529224395751951,1.4824823141098036,-11.723130226135256,-3.026661872863768,-0.0219180956482883,7.192553520202638,-6.447018623352053,-17.10703468322754,0.0561033186067195,-0.4342726220014649,0.4090594177380346,0.8005811015637991,1.1270918846130369,0.8349159399615682,-2.7350118160247803,1.865055084228516,-0.2464179396629333,-0.0185440033674243,8.047869682312013,-7.199915885925293,-5.477491855621338,0.1560185551643371,12.314757347106935,-14.214792251586914,1.459346890449524,0.9600435495376588,0.698748767375946,1
0.0219261646270823,15.39965877532959,-11.529224395751951,1.4824823141098036,-11.723130226135256,-3.026661872863768,-0.0219180956482883,7.192553520202638,-6.447018623352053,-17.10703468322754,0.0561033186067195,-0.4342726220014649,0.4090594177380346,0.8005811015637991,1.1270918846130369,0.8349159399615682,-2.7350118160247803,1.865055084228516,-0.2464179396629333,-0.0185440033674243,8.047869682312013,-7.199915885925293,-5.477491855621338,0.1560185551643371,12.314757347106935,-14.214792251586914,1.459346890449524,0.9600435495376588,0.698748767375946,1
0.023919820785515356,15.335640525817873,-11.545372009277346,1.4822932481765758,-11.743478775024414,-2.927155017852783,-0.0410630181431766,7.0559935569763175,-6.427637100219728,-17.129926681518555,0.0604348740141108,-0.4327016932235841,0.4112542907330897,0.7999917368560535,1.1279259920120244,0.8360841909991663,-2.74458646774292,1.8710063695907595,-0.2325153946876526,-0.0060850027948621,8.050067901611326,-7.206136226654053,-5.455665111541748,0.2117887735366821,12.321757316589355,-14.310507774353027,1.4524093866348269,0.9783720970153807,0.6987072825431824,1
0.025930643081672144,15.314277267456056,-11.550633430480955,1.4822069406509413,-11.750054359436035,-2.8938193321228027,-0.0474760420620437,7.107987403869628,-6.44838047027588,-17.049758911132812,0.0618815313774658,-0.4321663977425832,0.4119798535124999,0.7997971499301546,1.1281698942184446,0.8364647070514128,-2.747811794281006,1.8733643293380733,-0.22776959836483,-0.0019133719615642,8.050896644592285,-7.208047389984131,-5.448338985443115,0.1777553409337997,12.397494316101074,-14.346028327941896,1.4503495693206787,0.9847955703735352,0.6986933350563049,1
0.027933359146118164,15.292901611328125,-11.55583381652832,1.4821089506149303,-11.756532669067385,-2.860391855239868,-0.0539003349840637,7.1316208839416495,-6.528189182281495,-17.251733779907227,0.0633295274043654,-0.431625146949617,0.4127022910020133,0.7996036033442763,1.128396272659302,0.8368404547320769,-2.751054286956787,1.8757232427597048,-0.2230376601219176,0.0022746424656357,8.051775932312013,-7.209877967834473,-5.440999984741211,0.1948310285806656,12.422042846679688,-14.44699001312256,1.4482921361923218,0.9912205338478088,0.6986794471740723,1
0.02990508079529519,15.271514511108398,-11.560973167419435,1.4819992780685438,-11.762913703918455,-2.8268730640411377,-0.0603353977203365,7.192252159118652,-6.601003170013429,-17.331737518310547,0.0647788158851568,-0.4310782610553958,0.4134215347210016,0.7994109534444124,1.128605604171753,0.8372119108783167,-2.7543132305145264,1.878078818321228,-0.2183204740285873,0.006479926872998,8.052702903747559,-7.211628913879394,-5.433645725250244,0.1618119031190872,12.497719764709473,-14.483574867248535,1.4462333917617798,0.997644305229187,0.6986656188964844,1
0.031908512115478516,15.228705978393556,-11.571069717407228,1.4817448854446424,-11.77531909942627,-2.760124683380127,-0.0731187537312504,7.110280990600585,-6.4750847816467285,-17.151845932006836,0.0676819289985315,-0.4299670867691149,0.4148508660047889,0.7990282972194379,1.128973126411438,0.8379414717303675,-2.760882377624512,1.8827874660491943,-0.2089275121688842,0.0149421645328398,8.054712295532228,-7.21529483795166,-5.418486595153809,0.201861172914505,12.396275520324709,-14.42164134979248,1.4421172142028809,1.0104947090148926,0.6986380219459534,1
0.033907175064086914,15.207285499572755,-11.576027870178224,1.481600403785707,-11.781357765197756,-2.7268776893615723,-0.0794589072465893,7.156879901885985,-6.400943756103518,-16.999265670776367,0.0691355840015207,-0.4294029638062301,0.4155609530677054,0.798838193869481,1.1291317939758303,0.8382995764361785,-2.76419186592102,1.8851375579833984,-0.2045196890830993,0.0188943669199939,8.055791854858397,-7.217212200164795,-5.410704612731934,0.1992426812648772,12.333827018737791,-14.327085494995115,1.4403129816055298,1.0166046619415283,0.6986242532730103,1
0.035903930664069605,15.185853576660154,-11.580924987792969,1.4814443588256851,-11.787296295166016,-2.6935405731201167,-0.0858078673481937,7.048480510711669,-6.408795356750487,-16.985692977905273,0.0705905895339498,-0.4288331101861497,0.4162682836223479,0.7986487640555312,1.129274606704712,0.8386529127704065,-2.767517566680908,1.8874861001968384,-0.2001257389783859,0.0228619985282417,8.056913375854492,-7.219050884246826,-5.402908802032472,0.2236644327640532,12.281500816345217,-14.365756034851074,1.4385097026824951,1.0227142572402954,0.6986104249954224,1
0.03789854049683328,15.164411163330078,-11.58576202392578,1.4812767505645763,-11.793135643005373,-2.660113573074341,-0.0921651646494862,7.099407196044923,-6.4259915351867685,-17.159788131713867,0.072046935780509,-0.4282577703823876,0.4169726071481236,0.7984599965181988,1.1294013261795042,0.8390019575702112,-2.770859241485596,1.88983154296875,-0.1957462131977081,0.0268452502787109,8.058077812194824,-7.220811367034912,-5.395098686218262,0.2151906192302704,12.296284675598145,-14.333919525146484,1.4367053508758545,1.0288221836090088,0.6985966563224792,1
0.039982557296745824,15.164411163330078,-11.58576202392578,1.4812767505645763,-11.793135643005373,-2.660113573074341,-0.0921651646494862,7.099407196044923,-6.4259915351867685,-17.159788131713867,0.072046935780509,-0.4282577703823876,0.4169726071481236,0.7984599965181988,1.1294013261795042,0.8390019575702112,-2.770859241485596,1.88983154296875,-0.1957462131977081,0.0268452502787109,8.058077812194824,-7.220811367034912,-5.395098686218262,0.2151906192302704,12.296284675598145,-14.333919525146484,1.4367053508758545,1.0288221836090088,0.6985966563224792,1
0.041907310485839844,15.164411163330078,-11.58576202392578,1.4812767505645763,-11.793135643005373,-2.660113573074341,-0.0921651646494862,7.099407196044923,-6.4259915351867685,-17.159788131713867,0.072046935780509,-0.4282577703823876,0.4169726071481236,0.7984599965181988,1.1294013261795042,0.8390019575702112,-2.770859241485596,1.88983154296875,-0.1957462131977081,0.0268452502787109,8.058077812194824,-7.220811367034912,-5.395098686218262,0.2151906192302704,12.296284675598145,-14.333919525146484,1.4367053508758545,1.0288221836090088,0.6985966563224792,1
0.04389786720275879,15.164411163330078,-11.58576202392578,1.4812767505645763,-11.793135643005373,-2.660113573074341,-0.0921651646494862,7.099407196044923,-6.4259915351867685,-17.159788131713867,0.072046935780509,-0.4282577703823876,0.4169726071481236,0.7984599965181988,1.1294013261795042,0.8390019575702112,-2.770859241485596,1.88983154296875,-0.1957462131977081,0.0268452502787109,8.058077812194824,-7.220811367034912,-5.395098686218262,0.2151906192302704,12.296284675598145,-14.333919525146484,1.4367053508758545,1.0288221836090088,0.6985966563224792,1
0.0458984375,15.164411163330078,-11.58576202392578,1.4812767505645763,-11.793135643005373,-2.660113573074341,-0.0921651646494862,7.099407196044923,-6.4259915351867685,-17.159788131713867,0.072046935780509,-0.4282577703823876,0.4169726071481236,0.7984599965181988,1.1294013261795042,0.8390019575702112,-2.770859241485596,1.88983154296875,-0.1957462131977081,0.0268452502787109,8.058077812194824,-7.220811367034912,-5.395098686218262,0.2151906192302704,12.296284675598145,-14.333919525146484,1.4367053508758545,1.0288221836090088,0.6985966563224792,1
0.04789996147155762,15.164411163330078,-11.58576202392578,1.4812767505645763,-11.793135643005373,-2.660113573074341,-0.0921651646494862,7.099407196044923,-6.4259915351867685,-17.159788131713867,0.072046935780509,-0.4282577703823876,0.4169726071481236,0.7984599965181988,1.1294013261795042,0.8390019575702112,-2.770859241485596,1.88983154296875,-0.1957462131977081,0.0268452502787109,8.058077812194824,-7.220811367034912,-5.395098686218262,0.2151906192302704,12.296284675598145,-14.333919525146484,1.4367053508758545,1.0288221836090088,0.6985966563224792,1
0.0498967170715332,15.100022888183595,-11.59990692138672,1.480704188346864,-11.809852600097654,-2.559524774551392,-0.1113714724779125,7.188714504241943,-6.5555481910705575,-17.302167892456055,0.0764127285471861,-0.4264944210761421,0.4190744811494755,0.7978973511399812,1.1297043561935427,0.8399995009051722,-2.7809574604034424,1.8933401107788088,-0.1762740015983581,0.0314181521534915,8.061996459960938,-7.225410461425781,-5.3713035583496085,0.1955440938472748,12.41200065612793,-14.443766593933104,1.4318032264709473,1.0455690622329712,0.6882279515266418,1
0.05191445350646973,15.078540420532228,-11.604499816894531,1.4804899692535414,-11.815194129943848,-2.525851488113404,-0.1178002953529355,7.163835048675536,-6.553470134735107,-17.200613021850586,0.0778629771665155,-0.4258925685497492,0.4197738321640312,0.7977109794099536,1.1297863721847534,0.8403070608722132,-2.784340143203736,1.893843054771424,-0.1688727885484695,0.0317092984914775,8.063507080078125,-7.22664213180542,-5.363317489624023,0.1873968988656997,12.42770290374756,-14.413105964660645,1.4302527904510498,1.0507283210754397,0.6831177473068237,1
0.05391645431519976,15.057048416137697,-11.609030723571776,1.4802640676498426,-11.820448875427244,-2.492071866989136,-0.1242281645536419,7.158601760864258,-6.573027133941651,-17.319808959960938,0.079310567785106,-0.4252839737243011,0.4204719160593911,0.7975253872675254,1.1298577785491946,0.8406026999102991,-2.7877309322357173,1.8944251537323,-0.1616687178611755,0.0321910530328746,8.065113067626951,-7.227728366851807,-5.355354309082031,0.208165243268013,12.45090675354004,-14.515920639038086,1.428704023361206,1.0558904409408572,0.6782758235931396,1
0.05588936805724387,15.035546875,-11.613500595092772,1.4800264835357682,-11.825615882873535,-2.458186388015747,-0.1306546777486798,7.178584098815918,-6.6136445999145534,-17.338088989257812,0.0807562877593117,-0.4246688240636778,0.421169258244698,0.7973401205039912,1.1299201250076294,0.8408873716937464,-2.7911303043365483,1.8950809240341189,-0.1546651870012283,0.0328618064522739,8.06680965423584,-7.228673934936522,-5.347412586212158,0.1912003308534622,12.45969581604004,-14.489160537719728,1.4271540641784668,1.0610507726669312,0.6737022995948792,1
0.05790281295777078,14.99251708984375,-11.622255325317385,1.4795165061950697,-11.83563232421875,-2.39066743850708,-0.1433582752943036,7.1139464378356925,-6.552350044250487,-17.291765213012695,0.0836410662451496,-0.4234193720338715,0.4225607299391399,0.7969709134824922,1.1300165653228758,0.8414238134967253,-2.797952651977539,1.8963159322738647,-0.1414197981357574,0.0340531840920444,8.070452690124513,-7.230573654174805,-5.331196308135986,0.1994731724262237,12.416616439819336,-14.50135612487793,1.4243102073669434,1.0707409381866455,0.664958119392395,1
0.059923410415649414,14.970988845825197,-11.626541137695312,1.479244470596315,-11.840487480163574,-2.357025384902954,-0.1496310681104657,7.17078351974487,-6.491456031799317,-17.168121337890625,0.0850808169738372,-0.4227852774370901,0.4232551708430464,0.7967866239590939,1.130051732063294,0.8416765371905726,-2.801376104354858,1.897121787071228,-0.1350785940885543,0.0348066240549083,8.072389602661133,-7.231534004211426,-5.322927474975586,0.1554744690656662,12.404512405395508,-14.485390663146973,1.4230144023895264,1.0755854845046997,0.6609214544296265,1
0.06191444396973367,14.94945201873779,-11.630764961242676,1.4789609909057628,-11.845252990722654,-2.3232781887054443,-0.1559010148048398,7.138908863067628,-6.464144706726075,-17.240833282470707,0.0865186385221717,-0.4221448917715509,0.4239483955478088,0.796602770175885,1.130077242851257,0.8419187704669389,-2.8048079013824463,1.8980040550231927,-0.1289402097463607,0.0357433259487148,8.074402809143066,-7.232368469238281,-5.3146820068359375,0.1808188110589981,12.352331161499023,-14.523892402648926,1.4217194318771362,1.080430269241333,0.6571530103683472,1
0.06392431259154563,14.927906608581544,-11.634927749633787,1.4786661863327042,-11.849920272827148,-2.289435386657715,-0.1621713042259213,7.234123706817628,-6.448204040527345,-17.325016021728516,0.0879549815892972,-0.4214987570498909,0.4246403668807211,0.7964190340734141,1.1300938129425049,0.8421519438373015,-2.808247804641724,1.8987334966659544,-0.1231023296713829,0.036626141518354,8.076486587524414,-7.233077049255371,-5.306451320648193,0.1546791642904281,12.355195045471191,-14.501382827758787,1.4204237461090088,1.0849599838256836,0.6535189151763916,1
0.06595683097840066,14.884790992736816,-11.643067359924316,1.4780422449111952,-11.85898208618164,-2.2214365005493164,-0.1747008860111233,7.2011399269104,-6.548709392547607,-17.34739875793457,0.0908233663044417,-0.4201897604081409,0.4260205192616908,0.7960516305801261,1.1301012039184573,0.8425920645343226,-2.8151509761810303,1.9003454446792605,-0.1120887994766235,0.0384548790752883,8.080850601196289,-7.234135627746582,-5.290074825286865,0.1692324578762054,12.394984245300291,-14.576403617858888,1.4180877208709717,1.0937066078186035,0.6467874646186829,1
0.06792449951172586,14.86322078704834,-11.64704418182373,1.4777132272720348,-11.863374710083008,-2.1872806549072266,-0.1809595227241513,7.147121906280518,-6.4873437881469735,-17.268198013305664,0.0922554783216336,-0.4195269259108254,0.4267088890827097,0.7958678339606767,1.1300927400588991,0.8427990118609823,-2.8186140060424805,1.90122652053833,-0.106914684176445,0.0393973849713798,8.083126068115233,-7.234492301940918,-5.281931400299072,0.1925293952226638,12.416667938232422,-14.680662155151367,1.4170471429824831,1.0979220867156982,0.6436900496482849,1
0.06991934776305442,14.841642951965332,-11.650959014892578,1.4773728847503675,-11.867674827575684,-2.1530210971832275,-0.1872136294841764,7.1883912086486825,-6.530885219573977,-17.383844375610348,0.0936863840795663,-0.4188587699470632,0.4273959828410882,0.7956838983716017,1.1300761699676514,0.8429978529559539,-2.822084665298462,1.9021822214126587,-0.1019468158483505,0.0405164472758765,8.085457801818848,-7.234739780426025,-5.27381706237793,0.1667171120643615,12.420111656188965,-14.659170150756836,1.416005253791809,1.1021369695663452,0.6408610343933105,1
0.07193183898927202,14.82005748748779,-11.654810905456545,1.4770210981369034,-11.87187385559082,-2.1186673641204834,-0.1934664547443387,7.212576866149901,-6.6222801208496085,-17.636423110961914,0.0951163965185738,-0.4181856320378085,0.4280817122911496,0.7954996517110097,1.1300517320632937,0.8431895414935515,-2.8255629539489746,1.902986764907837,-0.097279280424118,0.0415709428489204,8.087841987609862,-7.234880447387695,-5.2657246589660645,0.1907330751419067,12.441311836242676,-14.763839721679688,1.4149646759033203,1.10603666305542,0.6381661891937256,1
0.0739297866821289,14.798464393615724,-11.65860080718994,1.4766579866409315,-11.875957489013672,-2.0842387676239014,-0.1997247636318204,7.222195625305175,-6.621680259704591,-17.556121826171875,0.0965452825534826,-0.417507630620368,0.4287658625748024,0.7953151714137736,1.130019187927246,0.8433740774737757,-2.8290483951568604,1.9036400318145752,-0.0926643759012222,0.042880959808826,8.090277671813965,-7.2349138259887695,-5.257633686065674,0.1740688383579254,12.452266693115234,-14.739442825317385,1.4136704206466677,1.10993754863739,0.6356054544448853,1
0.07591199874877219,14.755258178710935,-11.665992736816404,1.4758977890014662,-11.883743286132812,-2.0157177448272705,-0.2121108174324033,7.291561603546143,-6.5807509422302255,-17.551153182983402,0.0994000235342048,-0.4161373344234417,0.4301290483585154,0.7949455050370121,1.1299291849136353,0.8437226454364226,-2.8360412120819087,1.904712796211244,-0.0840022787451744,0.0458594672381873,8.095268249511719,-7.235080242156982,-5.241061210632324,0.122640959918499,12.460725784301758,-14.69830322265625,1.41082501411438,1.1174194812774658,0.6310208439826965,1
0.0778813362121582,14.733645057678224,-11.669595718383787,1.4755009412765516,-11.887444496154783,-1.981626033782959,-0.2182379513978956,7.259514331817628,-6.581531047821046,-17.363433837890625,0.100825772198167,-0.4154452860034404,0.4308074913625661,0.7947605195177071,1.1298705339431767,0.8438871542560022,-2.8395485877990723,1.9051356315612795,-0.079955019056797,0.0475246161222453,8.097813606262207,-7.235214233398437,-5.23258113861084,0.0968649536371231,12.46546745300293,-14.678152084350586,1.4092761278152466,1.1210031509399414,0.6289969086647034,1
0.07992053031921387,14.71202526092529,-11.673136711120604,1.4750930070877089,-11.891036033630373,-1.9474514722824097,-0.2243658304214474,7.1949195861816415,-6.4744353294372585,-17.286041259765625,0.1022507270823611,-0.4147487355923979,0.4314842128088489,0.7945751375624357,1.1298040151596072,0.8440454641925257,-2.843063116073608,1.9055585861206048,-0.075913056731224,0.0492041632533069,8.100398063659668,-7.235246181488037,-5.224122047424316,0.1329363286495208,12.347708702087402,-14.645902633666992,1.407727599143982,1.1245876550674438,0.6269729137420654,1
0.08188533782958984,14.690398788452148,-11.67661476135254,1.4746739864349376,-11.894523620605469,-1.9131848812103271,-0.2304906100034711,7.282556056976317,-6.5376462936401385,-17.573163986206055,0.1036746883283517,-0.4140480301833668,0.4321588724780838,0.794389386031664,1.129729390144348,0.8441980520831498,-2.8465840816497803,1.9058285951614384,-0.0721716433763504,0.0508106201887126,8.103013038635254,-7.2351765632629395,-5.215699672698975,0.1584334522485733,12.368218421936035,-14.751385688781738,1.4061782360076904,1.1278561353683472,0.6250832080841064,1
0.08391904830932617,14.647127723693847,-11.68338394165039,1.473802447319032,-11.901193618774414,-1.844367504119873,-0.2427261918783185,7.216713428497312,-6.5767793655395534,-17.66583824157715,0.1065202566405631,-0.4126342809201654,0.4335016510449073,0.7940168157388519,1.129554748535156,0.8444870154010218,-2.8536467552185063,1.906520247459412,-0.0651211515069007,0.0543652735650535,8.108334541320799,-7.234749317169189,-5.198978900909424,0.167869821190834,12.400792121887209,-14.83401584625244,1.403080940246582,1.1343929767608645,0.621840238571167,1
0.08591699600219727,14.625483131408693,-11.686674118041992,1.4733500480651869,-11.90436840057373,-1.8098270893096924,-0.2488399744033811,7.259654521942138,-6.566760540008546,-17.641719818115234,0.1079419487115373,-0.4119217581011249,0.4341697624578233,0.7938297161725248,1.1294556856155398,0.8446243445025847,-2.8571875095367427,1.906714677810669,-0.0618985258042812,0.0560706108808513,8.11103343963623,-7.234394073486327,-5.190673351287842,0.1512541621923446,12.413609504699709,-14.811301231384276,1.401532769203186,1.1373469829559326,0.6203529238700867,1
0.08793640136720171,14.603832817077636,-11.689901351928713,1.472886443138124,-11.907430648803713,-1.7752058506011963,-0.25495308637619,7.154995918273925,-6.563946247100831,-17.621137619018555,0.1093627952598328,-0.4112050796078622,0.4348359819869175,0.7936421298589943,1.129349112510681,0.8447559515582488,-2.860734701156616,1.9069089889526367,-0.0586815364658832,0.0577872581779952,8.113757133483888,-7.233945846557617,-5.182399272918701,0.1782388985157013,12.43316650390625,-14.917508125305176,1.39998459815979,1.14030122756958,0.6188657283782959,1
0.0899205207824707,14.582177734375,-11.693065643310549,1.4724117517471325,-11.910394668579102,-1.7404845952987669,-0.2610582113265989,7.252652168273925,-6.665151596069339,-17.64140510559082,0.1107829199183847,-0.4104848997549618,0.4354998207872219,0.7934539670464905,1.1292346715927122,0.8448832670794886,-2.864287853240967,1.90717875957489,-0.0556797161698341,0.0596648938953872,8.116503715515138,-7.233408451080322,-5.174180030822754,0.1004340499639511,12.497538566589355,-14.841936111450195,1.398436427116394,1.143255591392517,0.6176466941833496,1
0.09197354316712136,14.560516929626464,-11.6961669921875,1.4719259738922132,-11.91324520111084,-1.705683350563049,-0.2671621441841123,7.189588546752929,-6.585195064544679,-17.511825561523438,0.1122023145744088,-0.4097609435501002,0.4361611571174029,0.7932654377741949,1.129111528396607,0.8450058142291459,-2.867847681045532,1.9074475765228271,-0.0526846870779991,0.0615527518093581,8.119271278381348,-7.232782363891602,-5.165991306304932,0.1453783959150314,12.459665298461914,-14.873373031616213,1.396888017654419,1.146209478378296,0.6164277195930481,1
0.09392046928405762,14.517181015014648,-11.70217990875244,1.470921397209169,-11.91855525970459,-1.636436104774475,-0.2792338728904722,7.219418048858643,-6.587929248809817,-17.604406356811523,0.115039579499468,-0.4083028954382765,0.4374773749334525,0.7928859862216262,1.1288442611694338,0.8452389875995086,-2.874984741210937,1.9076795578002927,-0.0473004020750522,0.0651683211326594,8.12483024597168,-7.231673240661621,-5.149261474609375,0.1469514369964599,12.413921356201172,-14.893223762512209,1.393790364265442,1.151484131813049,0.6142582893371582,1
0.09592890739440918,14.495506858825683,-11.705092430114744,1.4704028367996231,-11.921014785766602,-1.601990818977356,-0.2852011919021604,7.351976871490478,-6.608882427215577,-17.55040168762207,0.1164571587173743,-0.4075692169585208,0.4381318641258725,0.7926951073451144,1.1286998987197876,0.8453500906573694,-2.8785610198974614,1.9076449871063232,-0.0449091680347919,0.066893339157104,8.127614974975586,-7.231191158294678,-5.140724182128906,0.0508552901446819,12.465765953063965,-14.826427459716797,1.3922425508499146,1.1538071632385254,0.613307774066925,1
0.09791922569274192,14.473827934265136,-11.707942008972168,1.469873428344728,-11.92336654663086,-1.5674573183059692,-0.2911627888679503,7.222454547882079,-6.5284080505371085,-17.380090713500973,0.1178741138980461,-0.4068320360994613,0.4387839039630257,0.7925036739970884,1.1285475492477417,0.8454569021808083,-2.882143497467041,1.9078375101089484,-0.0424440205097198,0.0688705891370769,8.130411148071289,-7.230625629425049,-5.132234573364258,0.0942986160516738,12.35728359222412,-14.788475036621096,1.3906947374343872,1.156445860862732,0.6124913692474365,1
0.09993767738342285,14.473827934265136,-11.707942008972168,1.469873428344728,-11.92336654663086,-1.5674573183059692,-0.2911627888679503,7.222454547882079,-6.5284080505371085,-17.380090713500973,0.1178741138980461,-0.4068320360994613,0.4387839039630257,0.7925036739970884,1.1285475492477417,0.8454569021808083,-2.882143497467041,1.9078375101089484,-0.0424440205097198,0.0688705891370769,8.130411148071289,-7.230625629425049,-5.132234573364258,0.0942986160516738,12.35728359222412,-14.788475036621096,1.3906947374343872,1.156445860862732,0.6124913692474365,1
0.10191941261292214,14.408768272399902,-11.716113090515137,1.4682201147079483,-11.929705619812012,-1.4634305238723757,-0.3090465068817137,7.320200920104978,-6.592152118682862,-17.684864044189453,0.1221220057888091,-0.4046026167954352,0.4407251334399613,0.7919244250171429,1.1280473470687864,0.8457577864276331,-2.8929233551025386,1.9073441028594968,-0.0357320234179496,0.0749706253409381,8.138845443725586,-7.228427410125732,-5.106962203979492,0.0899311900138855,12.406207084655762,-14.854610443115234,1.385284662246704,1.1634100675582886,0.6103105545043945,1
0.10390329360961914,14.38707408905029,-11.718710899353027,1.4676473140716566,-11.931570053100586,-1.428627610206604,-0.3150113224983213,7.258415222167968,-6.548884391784669,-17.65691375732422,0.1235365477712112,-0.4038537727780727,0.4413663160894077,0.7917301475877706,1.1278641223907473,0.8458517233477991,-2.8965272903442383,1.90684974193573,-0.0335682816803455,0.0774409174919124,8.141670227050781,-7.227523326873777,-5.098599910736084,0.1351781189441681,12.368690490722654,-14.885519981384276,1.3829737901687622,1.165731430053711,0.6097624897956848,1
0.10590314865111594,14.365377044677734,-11.72124481201172,1.4670636653900158,-11.933311462402346,-1.3937585353851318,-0.3209763169288633,7.314629077911378,-6.63269329071045,-17.78636932373047,0.1249501787143331,-0.4031021442029693,0.4420045475193887,0.7915352766304261,1.1276729106903076,0.8459423224078577,-2.9001359939575195,1.906129479408264,-0.031487800180912,0.0796740427613254,8.144498825073242,-7.226531982421875,-5.09027910232544,0.1033380255103111,12.439974784851074,-14.942415237426758,1.3806636333465576,1.1677392721176147,0.6090803742408752,1
0.10792684555055132,14.343677139282228,-11.723715782165527,1.4664691686630262,-11.934929847717283,-1.3588238954544067,-0.3269412517547606,7.328631401062013,-6.644588470458984,-17.745351791381836,0.1263630297822646,-0.4023479188937283,0.4426397427588098,0.7913397468828083,1.1274737119674685,0.8460300604449675,-2.903749465942384,1.905256986618042,-0.0294824782758951,0.0821482688188548,8.147329330444336,-7.2254533767700195,-5.082003593444824,0.086937092244625,12.455835342407228,-14.922792434692385,1.3780999183654783,1.169746994972229,0.6085323095321655,1
0.1098635196685791,14.32197437286377,-11.726122856140137,1.4658639430999767,-11.936431884765623,-1.3238142728805542,-0.3329023420810698,7.311857223510741,-6.697216510772706,-17.781328201293945,0.1277750108583798,-0.4015911393283006,0.4432717028938908,0.7911436663632521,1.127266049385071,0.8461149374591277,-2.907367706298828,1.9043827056884768,-0.0274869501590728,0.0846285820007319,8.150160789489746,-7.224287033081055,-5.073785781860352,0.0467139035463333,12.520059585571287,-14.984185218811035,1.3755357265472412,1.171752691268921,0.6079843640327454,1
0.1119084358215332,14.30026969909668,-11.728466987609863,1.4652481079101576,-11.937822341918944,-1.2892262935638428,-0.3387254476547239,7.334263324737548,-6.621634960174561,-17.630685806274414,0.1291859475650518,-0.4008321836694415,0.4439002949802069,0.7909469511939421,1.1270502805709837,0.8461974302874968,-2.9109897613525386,1.903356552124024,-0.0257887039333581,0.0870108827948566,8.152972221374513,-7.223404407501223,-5.065272331237793,0.0270457211881876,12.466968536376951,-14.894662857055664,1.3729703426361084,1.1734434366226196,0.6075705885887146,1
0.11391592025756125,14.27856216430664,-11.730748176574709,1.4646216630935682,-11.939096450805664,-1.2545642852783203,-0.3445442318916319,7.317780971527099,-6.554465770721438,-17.648639678955078,0.1305959571109171,-0.4000707673199694,0.4445257732187878,0.7907495899882169,1.1268266439437866,0.8462770620929168,-2.914616107940674,1.902332663536072,-0.0240981485694646,0.0893986150622363,8.155777931213379,-7.222435474395753,-5.056821346282959,0.0546396858990192,12.415372848510742,-14.932417869567873,1.3704071044921875,1.1751360893249512,0.6071567535400391,1
0.11593937873839621,14.256852722167968,-11.732966423034668,1.4639846086502089,-11.940253257751465,-1.2198286056518557,-0.3503584563732145,7.335368633270263,-6.565507888793946,-17.680946350097656,0.1320049337852863,-0.399307201261096,0.4451478659304121,0.7905516010577505,1.1265949010849,0.8463543097125457,-2.9182462692260738,1.9013060331344604,-0.0224165953695774,0.0917926356196399,8.15857982635498,-7.221380710601807,-5.048430442810059,0.0432718656957149,12.370475769042969,-14.839279174804688,1.3678416013717651,1.176827073097229,0.6067430377006531,1
0.11794042587279563,14.235141372680664,-11.73512077331543,1.4633370637893692,-11.941292762756348,-1.185019850730896,-0.3561678826808927,7.30556297302246,-6.536777496337893,-17.666154861450195,0.1334132143648019,-0.3985413451832209,0.4457669425807243,0.7903527967399324,1.1263557672500608,0.8464291731463831,-2.9218807220458984,1.9002803564071653,-0.0207435265183448,0.0941915214061732,8.161378860473633,-7.220241069793701,-5.040102005004883,0.0658239647746086,12.380858421325684,-14.951207160949709,1.3652777671813965,1.1785184144973757,0.6063292026519775,1
0.11994338035584207,14.235141372680664,-11.73512077331543,1.4633370637893692,-11.941292762756348,-1.185019850730896,-0.3561678826808927,7.30556297302246,-6.536777496337893,-17.666154861450195,0.1334132143648019,-0.3985413451832209,0.4457669425807243,0.7903527967399324,1.1263557672500608,0.8464291731463831,-2.9218807220458984,1.9002803564071653,-0.0207435265183448,0.0941915214061732,8.161378860473633,-7.220241069793701,-5.040102005004883,0.0658239647746086,12.380858421325684,-14.951207160949709,1.3652777671813965,1.1785184144973757,0.6063292026519775,1
0.12192058563233132,14.235141372680664,-11.73512077331543,1.4633370637893692,-11.941292762756348,-1.185019850730896,-0.3561678826808927,7.30556297302246,-6.536777496337893,-17.666154861450195,0.1334132143648019,-0.3985413451832209,0.4457669425807243,0.7903527967399324,1.1263557672500608,0.8464291731463831,-2.9218807220458984,1.9002803564071653,-0.0207435265183448,0.0941915214061732,8.161378860473633,-7.220241069793701,-5.040102005004883,0.0658239647746086,12.380858421325684,-14.951207160949709,1.3652777671813965,1.1785184144973757,0.6063292026519775,1
0.12393641471862793,14.235141372680664,-11.73512077331543,1.4633370637893692,-11.941292762756348,-1.185019850730896,-0.3561678826808927,7.30556297302246,-6.536777496337893,-17.666154861450195,0.1334132143648019,-0.3985413451832209,0.4457669425807243,0.7903527967399324,1.1263557672500608,0.8464291731463831,-2.9218807220458984,1.9002803564071653,-0.0207435265183448,0.0941915214061732,8.161378860473633,-7.220241069793701,-5.040102005004883,0.0658239647746086,12.380858421325684,-14.951207160949709,1.3652777671813965,1.1785184144973757,0.6063292026519775,1
0.12591719627381082,14.235141372680664,-11.73512077331543,1.4633370637893692,-11.941292762756348,-1.185019850730896,-0.3561678826808927,7.30556297302246,-6.536777496337893,-17.666154861450195,0.1334132143648019,-0.3985413451832209,0.4457669425807243,0.7903527967399324,1.1263557672500608,0.8464291731463831,-2.9218807220458984,1.9002803564071653,-0.0207435265183448,0.0941915214061732,8.161378860473633,-7.220241069793701,-5.040102005004883,0.0658239647746086,12.380858421325684,-14.951207160949709,1.3652777671813965,1.1785184144973757,0.6063292026519775,1
0.12790322303771973,14.235141372680664,-11.73512077331543,1.4633370637893692,-11.941292762756348,-1.185019850730896,-0.3561678826808927,7.30556297302246,-6.536777496337893,-17.666154861450195,0.1334132143648019,-0.3985413451832209,0.4457669425807243,0.7903527967399324,1.1263557672500608,0.8464291731463831,-2.9218807220458984,1.9002803564071653,-0.0207435265183448,0.0941915214061732,8.161378860473633,-7.220241069793701,-5.040102005004883,0.0658239647746086,12.380858421325684,-14.951207160949709,1.3652777671813965,1.1785184144973757,0.6063292026519775,1
0.12990927696227317,14.169997787475586,-11.741203308105469,1.4613310098648085,-11.943717956542969,-1.0801399946212769,-0.3735579848289489,7.3445558547973615,-6.567284584045411,-17.69363021850586,0.1376328804182296,-0.3962292096901582,0.4476040842762234,0.7897532445994364,1.1255871057510378,0.8466370741473601,-2.9328122138977046,1.8980320692062376,-0.015282186679542,0.1022775322198863,8.169770240783691,-7.216322422027588,-5.015491485595703,0.0654117465019226,12.433160781860352,-15.023584365844728,1.357586145401001,1.1848541498184204,0.6053563356399536,1
0.13188409805297852,14.148280715942384,-11.74310302734375,1.4606412649154676,-11.94429874420166,-1.0450236797332764,-0.3793387115001678,7.403024673461911,-6.684607028961183,-17.943458557128906,0.1390386546891191,-0.3954526419021857,0.4482096668961581,0.7895527563219932,1.125311255455017,0.8467000166522425,-2.936469554901123,1.8978352546691888,-0.0131540326401591,0.1055555790662761,8.172575950622559,-7.214854717254639,-5.007400035858153,0.0272050462663173,12.497830390930176,-15.087979316711426,1.3550220727920532,1.1878066062927246,0.6052107214927673,1
0.1339261531829905,14.126562690734865,-11.744938850402832,1.4599410295486464,-11.944754600524902,-1.0098469257354736,-0.3851169049739837,7.270836830139159,-6.646995544433595,-17.924659729003906,0.1404441750492639,-0.3946729582337643,0.4488115234011919,0.7893522066834566,1.125024199485779,0.8467596212970183,-2.940134763717652,1.8977864980697632,-0.0107517270371317,0.108954936265945,8.175392150878906,-7.213306903839111,-4.999335289001465,0.0736363008618354,12.4606351852417,-15.11855697631836,1.352457046508789,1.191072940826416,0.604931116104126,1
0.13588333129884234,14.104844665527343,-11.746710777282717,1.4592303037643446,-11.945091247558596,-0.9746000170707704,-0.3908886909484861,7.3857364654541025,-6.655197143554688,-17.772857666015625,0.1418500798805403,-0.3938895878749691,0.4494102267256638,0.7891514401659283,1.1247264146804812,0.8468154112445276,-2.943809509277344,1.8981952667236328,-0.008437599055469,0.1125130653381343,8.178217887878418,-7.211684226989746,-4.9913010597229,-0.0137109048664569,12.52734088897705,-15.057286262512209,1.3501472473144531,1.1946570873260498,0.6049196720123291,1
0.13786554336547852,14.061406707763672,-11.750062942504885,1.4577776193618788,-11.94546604156494,-0.9044853448867798,-0.4022814631462096,7.369604587554932,-6.691258430480957,-17.78656578063965,0.1446623454885069,-0.3923129325422687,0.4505968172981771,0.7887495654506584,1.124096870422363,0.8469169775592253,-2.951185703277588,1.899009346961975,-0.0038474993780255,0.1196515709161754,8.183917999267576,-7.208654880523682,-4.974912166595459,-0.0009435777319595,12.494962692260742,-15.078211784362791,1.3455283641815186,1.2018224000930786,0.604896605014801,1
0.1399245262145925,14.039687728881836,-11.751644134521484,1.4570360183715831,-11.945504188537598,-0.8696185350418091,-0.4079017639160155,7.311865329742432,-6.577467441558839,-17.860485076904297,0.1460686665595665,-0.3915192331140721,0.4511850467928498,0.7885484692153129,1.1237655878067017,0.8469618002520964,-2.9548873901367188,1.8994152545928955,-0.0015712244203314,0.1232322528958316,8.186789512634277,-7.207247257232666,-4.966553688049316,0.0306600034236908,12.383636474609377,-15.039533615112305,1.3432188034057615,1.2054046392440796,0.6048850417137146,1
0.1419386863708496,14.01796875,-11.753161430358888,1.4562841653823866,-11.945427894592283,-0.8346732258796692,-0.4135107696056365,7.407437801361081,-6.518943309783938,-17.82647705078125,0.1474753444142454,-0.3907221886135809,0.4517698943078403,0.7883471042072748,1.1234235763549807,0.8470032850848597,-2.9585981369018555,1.8999717235565183,0.0007725023897364,0.1265911906957622,8.189669609069824,-7.205763816833496,-4.9582343101501465,-0.0032791781704872,12.38882064819336,-15.030027389526367,1.3411622047424316,1.208986520767212,0.6047395467758179,1
0.143950939178481,13.996249771118164,-11.754615783691404,1.4555221796035782,-11.945231437683104,-0.7996601462364197,-0.4191117286682128,7.315537452697753,-6.5074968338012695,-17.86227035522461,0.1488820718949059,-0.3899215010838524,0.4523514813725317,0.7881456013712639,1.1230709552764897,0.8470404783831995,-2.962317705154419,1.9005298614501955,0.0031051393598318,0.1299575865268703,8.192558288574219,-7.204206943511963,-4.949941158294678,0.0458366610109806,12.292454719543455,-14.9838228225708,1.3391075134277344,1.2125699520111084,0.6045939922332764,1
0.1459178924560618,13.95281467437744,-11.757332801818848,1.4539675712585465,-11.944486618041992,-0.7294118404388428,-0.4302811026573179,7.430566310882567,-6.5546722412109375,-17.78304672241211,0.15169618595962,-0.3883105479776417,0.4535048709984285,0.7877414026667043,1.1223359107971194,0.8471048513995583,-2.9697816371917725,1.9013442993164065,0.0071686990559101,0.1364713162183757,8.198352813720701,-7.200876712799072,-4.933473587036133,0.0028950667474418,12.385186195373535,-15.031790733337402,1.3349980115890503,1.2191046476364136,0.6045712232589722,1
0.14792466163634543,13.931098556518556,-11.758594512939451,1.4531750679016124,-11.94393253326416,-0.6941878795623779,-0.4358524978160857,7.434315681457517,-6.725463867187501,-17.96785545349121,0.1531036832703093,-0.3875002548906729,0.454076689272899,0.7875386815183693,1.1219534873962405,0.8471320311175745,-2.9735262393951416,1.9017475843429563,0.0091828526929021,0.1397391259670253,8.201259613037111,-7.1991047859191895,-4.92528772354126,-0.0341457985341548,12.5097074508667,-15.176746368408203,1.332940936088562,1.222369909286499,0.6045598387718201,1
0.14992046356201172,13.909383392333984,-11.75979232788086,1.452372550964357,-11.943256378173828,-0.6588980555534363,-0.4414146542549132,7.45940065383911,-6.6628923416137695,-18.05551528930664,0.1545111273290573,-0.3866867392567193,0.4546453056962355,0.7873355848828923,1.1215615272521973,0.8471553961383265,-2.977278470993042,1.9021532535552976,0.0111865904182195,0.1430135369300838,8.204172134399414,-7.197262287139893,-4.91713285446167,-0.0045779244974255,12.458620071411133,-15.213909149169922,1.3308857679367063,1.2256370782852173,0.6045483946800232,1
0.15191006660461426,13.887670135498048,-11.760926246643065,1.4515599012374891,-11.942459106445312,-0.6235427856445312,-0.4469672441482544,7.387745857238769,-6.71591091156006,-17.914382934570312,0.1559189091329711,-0.385870022521454,0.4552105872467427,0.7871320986674043,1.1211594343185425,0.8471754232989709,-2.98103928565979,1.9025572538375848,0.0131788691505789,0.1462952494621272,8.207091331481934,-7.19534969329834,-4.909010887145996,-0.0197225734591484,12.4791898727417,-15.19915771484375,1.328829646110535,1.2289036512374878,0.6045370697975159,1
0.15391802787780762,13.865957832336424,-11.761995315551758,1.4507371187210096,-11.94153881072998,-0.5881226062774658,-0.4525099992752074,7.400285720825193,-6.6436920166015625,-18.061262130737305,0.1573266114432843,-0.3850501112910641,0.4557723999437807,0.786928375759827,1.1207470893859866,0.8471916357623503,-2.9848079681396484,1.9029616117477417,0.0151595696806907,0.1495826840400691,8.210013389587402,-7.193366050720215,-4.900920391082764,0.028058348223567,12.44248390197754,-15.229207038879396,1.326774835586548,1.2321697473526,0.6045256853103638,1
0.15591812133788352,13.822538948059082,-11.763941764831545,1.4490617513656632,-11.939455032348633,-0.5176907181739808,-0.4634452760219573,7.354105949401853,-6.576359748840332,-18.00150489807129,0.1601424226527803,-0.383401261488255,0.4568864411662979,0.786519330362902,1.1198948621749878,0.8472140471087855,-2.99236798286438,1.9036208391189573,0.0186124183237552,0.1556969583034511,8.21591854095459,-7.189661979675293,-4.884433269500732,0.0339705646038055,12.40528678894043,-15.255062103271484,1.3229178190231323,1.2380713224411009,0.6046370267868042,1
0.15787672996519575,13.800833320617675,-11.764819145202637,1.4482092857360849,-11.938284873962402,-0.4826903343200685,-0.4688408374786376,7.405315399169923,-6.599622726440432,-17.811372756958008,0.1615506592648881,-0.3825723162029905,0.4574390162318249,0.7863137756614845,1.1194560527801511,0.8472202459918425,-2.996159076690674,1.9040255546569824,0.0203668642789125,0.1586493551731105,8.218897819519043,-7.187939643859862,-4.876017093658447,-0.0527247935533523,12.4194974899292,-15.123283386230469,1.3211158514022827,1.2410222291946411,0.6046255826950073,1
0.15991806983947754,13.779129600524902,-11.765632629394531,1.4473470449447643,-11.93699073791504,-0.4476269483566285,-0.4742254316806793,7.386666297912598,-6.578537940979005,-18.01203727722168,0.162958802392366,-0.3817405400106583,0.4579882355884246,0.7861077311016719,1.1190080642700198,0.8472231070147913,-2.9999570846557617,1.90442955493927,0.0221105068922043,0.1616066992282863,8.221879005432129,-7.186148166656494,-4.86763334274292,-0.0228691175580024,12.368897438049316,-15.160042762756348,1.3193148374557495,1.2439719438552856,0.6046141386032104,1
0.16187381744384766,13.757428741455078,-11.766382217407228,1.4464750289917006,-11.935572624206545,-0.4125010073184968,-0.4795988202095031,7.469597339630128,-6.552291870117188,-18.029630661010746,0.1643672806390454,-0.3809057080579098,0.4585343604320477,0.7859010617930228,1.1185511350631716,0.8472226301776331,-3.00376296043396,1.904834628105164,0.0238451045006513,0.1645710021257396,8.224860191345215,-7.18428897857666,-4.859280586242676,-0.0379461012780666,12.39097499847412,-15.146547317504885,1.317513942718506,1.2469236850738523,0.6046026945114136,1
0.16387081146240234,13.714035606384275,-11.76768970489502,1.4447017908096325,-11.932364463806152,-0.342063456773758,-0.4903108477592468,7.410456180572509,-6.5662689208984375,-17.951875686645508,0.1671842704939544,-0.3792268024175343,0.4596176129367498,0.7854859017868497,1.1176120042800903,0.8472102324115198,-3.0113959312438965,1.9056428670883176,0.0272832326591015,0.1705169528722759,8.230827331542969,-7.180366516113281,-4.842670440673828,-0.0228655729442834,12.362862586975098,-15.170025825500488,1.3139121532440186,1.2528259754180908,0.6045798659324646,1
0.16587281227111816,13.6923433303833,-11.768247604370115,1.4438005685806288,-11.93057918548584,-0.3067422211170197,-0.4956453442573546,7.41586351394653,-6.5055813789367685,-17.96419334411621,0.1685928509531684,-0.3783829622654257,0.4601545052589569,0.7852774132525453,1.1171294450759883,0.8471987883197234,-3.0152230262756348,1.9061994552612305,0.0290795173496008,0.1732727289199825,8.233814239501951,-7.178303718566895,-4.834423542022705,0.0253704208880662,12.326627731323242,-15.19947624206543,1.312366604804993,1.255778193473816,0.6044343113899231,1
0.16791081428527832,13.67065486907959,-11.7687406539917,1.4428896903991713,-11.928674697875977,-0.2713497579097748,-0.5009639263153076,7.392045021057128,-6.627378940582276,-18.055221557617188,0.1700016197851114,-0.3775362716561895,0.4606887669296553,0.7850679415688913,1.1166399717330933,0.8471840063678182,-3.019056558609009,1.9066050052642824,0.0305879972875118,0.1759005337953563,8.236798286437987,-7.17617654800415,-4.826221466064453,-0.0062692486681044,12.392060279846191,-15.272150039672852,1.310819149017334,1.2584136724472046,0.6044228672981262,1
0.16995501518249512,13.648970222473144,-11.769169807434082,1.44196915626526,-11.926644325256348,-0.2358971238136292,-0.5062699913978577,7.379136085510253,-6.628840446472169,-18.11889266967773,0.1714102610987425,-0.3766866508573475,0.461220025277355,0.7848578073377951,1.1161425113677983,0.8471654097186487,-3.0228965282440186,1.907012104988098,0.0320879481732845,0.1785331070423122,8.239781379699707,-7.173983573913574,-4.818053722381592,-0.0208382960408926,12.414936065673828,-15.25990867614746,1.3092737197875977,1.2610504627227783,0.6044114828109741,1
0.17192292213439941,13.627289390563964,-11.76953411102295,1.4410390853881851,-11.92448902130127,-0.2003848254680633,-0.5115633010864258,7.489839553833008,-6.636540412902832,-18.2302474975586,0.1728192052936349,-0.3758343770150788,0.4617483722657522,0.7846467256321743,1.115637540817261,0.8471439520465301,-3.026743173599243,1.9074188470840447,0.033578984439373,0.1811710000038142,8.242765426635742,-7.171727657318115,-4.809919834136963,-0.0606791898608207,12.473175048828123,-15.337172508239744,1.3077280521392822,1.263687252998352,0.6044000387191772,1
0.17392802238465066,13.58394012451172,-11.770069122314451,1.4391503334045423,-11.91994285583496,-0.1297152787446976,-0.5219733715057373,7.476664543151853,-6.668530941009522,-18.25231170654297,0.1756369540974645,-0.3741215696366567,0.4627966376724462,0.7842218969443839,1.1146063804626465,0.8470905462848113,-3.034454345703125,1.9082300662994385,0.036352064460516,0.1860989481210704,8.248756408691406,-7.16746711730957,-4.793400764465332,-0.0528464876115322,12.43860149383545,-15.36599063873291,1.3048882484436035,1.2686419486999512,0.6043771505355835,1
0.17593812942504883,13.562271690368652,-11.770240783691404,1.4381920099258438,-11.91755199432373,-0.0945589616894722,-0.5270896553993225,7.393348693847655,-6.537315845489505,-18.13379096984864,0.1770456997677292,-0.3732613612445609,0.4633165199072877,0.7840080221379194,1.114080667495727,0.8470590750323699,-3.038318157196045,1.9086352586746216,0.0376360490918159,0.1883890032768245,8.251758575439451,-7.165463924407959,-4.78501558303833,-0.0151034416630864,12.339045524597168,-15.3199462890625,1.303593993186951,1.270961046218872,0.6043657660484314,1
0.17791914939881082,13.540608024597168,-11.77034854888916,1.43722438812256,-11.915034294128418,-0.0593448728322983,-0.5321922898292542,7.4158082008361825,-6.479432106018067,-17.9906005859375,0.1784545917482005,-0.3723984324497609,0.4638339740873435,0.7837929641654646,1.1135491132736204,0.8470242659198197,-3.042187690734864,1.9090431928634644,0.0389130264520645,0.1906831413507457,8.254755020141603,-7.163397789001465,-4.776662826538086,-0.0501217022538185,12.292760848999023,-15.23672580718994,1.3023022413253784,1.2732819318771362,0.6043544411659241,1
0.17992091178894043,13.540608024597168,-11.77034854888916,1.43722438812256,-11.915034294128418,-0.0593448728322983,-0.5321922898292542,7.4158082008361825,-6.479432106018067,-17.9906005859375,0.1784545917482005,-0.3723984324497609,0.4638339740873435,0.7837929641654646,1.1135491132736204,0.8470242659198197,-3.042187690734864,1.9090431928634644,0.0389130264520645,0.1906831413507457,8.254755020141603,-7.163397789001465,-4.776662826538086,-0.0501217022538185,12.292760848999023,-15.23672580718994,1.3023022413253784,1.2732819318771362,0.6043544411659241,1
0.18191742897033691,13.475646591186525,-11.77028751373291,1.4342659711837782,-11.90668773651123,0.0465745925903319,-0.5474382638931274,7.394184589385985,-6.533147811889648,-18.056236267089844,0.1826796453602396,-0.369795322296594,0.4653685243572156,0.7831421986562868,1.1119139194488523,0.8469007650958459,-3.053826093673706,1.908663511276245,0.0427023954689502,0.1980901509523388,8.263708114624022,-7.156802654266357,-4.751777172088623,-0.0447693094611167,12.346586227416992,-15.331189155578612,1.2968980073928833,1.2796090841293335,0.6040522456169128,1
0.18387770652768864,13.45400390625,-11.77013874053955,1.4332613945007338,-11.903619766235352,0.0819285735487937,-0.5525135993957521,7.50907802581787,-6.565343379974366,-18.14651107788086,0.1840868994090268,-0.3689231176248301,0.4658734535680933,0.7829237970635993,1.1113541126251223,0.8468530813800257,-3.0577147006988525,1.9078512191772456,0.0440950393676758,0.2009307444095608,8.266681671142576,-7.1544551849365225,-4.743513107299805,-0.0679455399513244,12.364130973815918,-15.32472324371338,1.2943352460861206,1.281612992286682,0.6037726402282715,1
0.1859145164489675,13.432366943359376,-11.769925117492676,1.432247638702394,-11.900420188903809,0.1173268556594847,-0.557577908039093,7.47354221343994,-6.686697483062745,-18.219951629638672,0.1854931699211022,-0.3680486360734693,0.4663746593011146,0.7827050290874903,1.1107858419418335,0.8468015829669389,-3.061607599258424,1.9068901538848884,0.0453762337565422,0.2039979547262188,8.269649505615233,-7.1520328521728525,-4.735295295715332,-0.0871728956699371,12.436797142028809,-15.398375511169435,1.2915204763412476,1.283618688583374,0.6036271452903748,1
0.18789291381836648,13.410735702514648,-11.769647598266602,1.4312247037887584,-11.897082328796388,0.1527580469846725,-0.5626345872879028,7.498496532440185,-6.577322006225589,-18.25292015075684,0.1868984935375716,-0.367172379676453,0.4668718777118973,0.7824858123428721,1.110208988189697,0.8467472235309051,-3.065504312515259,1.9055496454238887,0.0465026050806045,0.2070371508598324,8.272611618041992,-7.149531364440918,-4.72711992263794,-0.0416864827275276,12.34610652923584,-15.347694396972654,1.2884507179260254,1.2853070497512815,0.6034818291664124,1
0.18986201286315918,13.389111137390136,-11.769305229187012,1.4301925897598282,-11.893616676330565,0.188243195414543,-0.5676761269569397,7.44527769088745,-6.685892581939697,-18.24868965148925,0.1883028951058782,-0.3662943638973198,0.4673652887785292,0.7822660324446946,1.1096241474151614,0.8466900030719202,-3.0694046020507804,1.9042090177536009,0.0476181618869305,0.210080966353416,8.27556037902832,-7.146951198577881,-4.719010829925537,-0.0603446252644062,12.418805122375488,-15.421940803527832,1.2853806018829346,1.2869961261749268,0.6033364534378052,1
0.19186806678771973,13.367492294311525,-11.768898963928224,1.4291515350341808,-11.89016342163086,0.2232879102230071,-0.5725866556167603,7.428992271423339,-6.564640998840332,-18.313514709472656,0.1897061785484797,-0.3654144658539273,0.4678547545246766,0.7820458826909557,1.1090308427810671,0.8466294447528289,-3.0733084678649902,1.9028667211532595,0.0487219356000423,0.2131283134222026,8.278532028198242,-7.144693374633789,-4.710629463195801,-0.0242315866053104,12.321456909179688,-15.374333381652832,1.2823096513748171,1.2886834144592283,0.6031911373138428,1
0.19391393661496892,13.345880126953125,-11.768428802490234,1.4281015396118175,-11.886582374572756,0.2583854794502258,-0.5774815082550049,7.503529548645019,-6.5565128326416025,-18.360708236694336,0.1911087374824743,-0.3645327370787568,0.4683406233872894,0.7818250408761092,1.1084300279617307,0.8465660254107874,-3.077216148376465,1.9015250205993648,0.0498151518404484,0.2161798924207683,8.281493186950684,-7.14235782623291,-4.702314376831055,-0.0562179014086723,12.332977294921877,-15.372453689575195,1.279239058494568,1.290371656417847,0.603045642375946,1
0.19594287872314453,13.32427463531494,-11.767894744873049,1.4270427227020277,-11.88287353515625,0.2935353219509124,-0.5823604464530945,7.483332633972168,-6.429225444793702,-18.147066116333008,0.1925101744971983,-0.3636491672091055,0.4688224799689961,0.7816038626944616,1.1078206300735474,0.8464992682086394,-3.0811274051666264,1.9001835584640503,0.0508972331881523,0.2192351520061488,8.284443855285645,-7.1399431228637695,-4.6940646171569815,-0.0297237951308488,12.229175567626951,-15.327838897705078,1.276168942451477,1.2920600175857544,0.6029004454612732,1
0.19791746139527078,13.302676773071289,-11.76729679107666,1.4259750843048111,-11.879035949707031,0.3287368714809417,-0.58722323179245,7.5416297912597665,-6.5797414779663095,-18.22971534729004,0.1939106291548961,-0.3627637026224324,0.4693005933906692,0.7813821836998727,1.1072033643722534,0.8464291731463831,-3.0850422382354736,1.8988443613052368,0.051968976855278,0.222293987870216,8.287384986877441,-7.137450695037843,-4.685880661010742,-0.1164853647351265,12.31030559539795,-15.285651206970217,1.273100733757019,1.2937499284744265,0.6027551293373108,1
0.19991350173949485,13.302676773071289,-11.76729679107666,1.4259750843048111,-11.879035949707031,0.3287368714809417,-0.58722323179245,7.5416297912597665,-6.5797414779663095,-18.22971534729004,0.1939106291548961,-0.3627637026224324,0.4693005933906692,0.7813821836998727,1.1072033643722534,0.8464291731463831,-3.0850422382354736,1.8988443613052368,0.051968976855278,0.222293987870216,8.287384986877441,-7.137450695037843,-4.685880661010742,-0.1164853647351265,12.31030559539795,-15.285651206970217,1.273100733757019,1.2937499284744265,0.6027551293373108,1
0.20191693305969238,13.302676773071289,-11.76729679107666,1.4259750843048111,-11.879035949707031,0.3287368714809417,-0.58722323179245,7.5416297912597665,-6.5797414779663095,-18.22971534729004,0.1939106291548961,-0.3627637026224324,0.4693005933906692,0.7813821836998727,1.1072033643722534,0.8464291731463831,-3.0850422382354736,1.8988443613052368,0.051968976855278,0.222293987870216,8.287384986877441,-7.137450695037843,-4.685880661010742,-0.1164853647351265,12.31030559539795,-15.285651206970217,1.273100733757019,1.2937499284744265,0.6027551293373108,1
0.2039175033569336,13.302676773071289,-11.76729679107666,1.4259750843048111,-11.879035949707031,0.3287368714809417,-0.58722323179245,7.5416297912597665,-6.5797414779663095,-18.22971534729004,0.1939106291548961,-0.3627637026224324,0.4693005933906692,0.7813821836998727,1.1072033643722534,0.8464291731463831,-3.0850422382354736,1.8988443613052368,0.051968976855278,0.222293987870216,8.287384986877441,-7.137450695037843,-4.685880661010742,-0.1164853647351265,12.31030559539795,-15.285651206970217,1.273100733757019,1.2937499284744265,0.6027551293373108,1
0.20591259002686257,13.302676773071289,-11.76729679107666,1.4259750843048111,-11.879035949707031,0.3287368714809417,-0.58722323179245,7.5416297912597665,-6.5797414779663095,-18.22971534729004,0.1939106291548961,-0.3627637026224324,0.4693005933906692,0.7813821836998727,1.1072033643722534,0.8464291731463831,-3.0850422382354736,1.8988443613052368,0.051968976855278,0.222293987870216,8.287384986877441,-7.137450695037843,-4.685880661010742,-0.1164853647351265,12.31030559539795,-15.285651206970217,1.273100733757019,1.2937499284744265,0.6027551293373108,1
0.2079308032989502,13.302676773071289,-11.76729679107666,1.4259750843048111,-11.879035949707031,0.3287368714809417,-0.58722323179245,7.5416297912597665,-6.5797414779663095,-18.22971534729004,0.1939106291548961,-0.3627637026224324,0.4693005933906692,0.7813821836998727,1.1072033643722534,0.8464291731463831,-3.0850422382354736,1.8988443613052368,0.051968976855278,0.222293987870216,8.287384986877441,-7.137450695037843,-4.685880661010742,-0.1164853647351265,12.31030559539795,-15.285651206970217,1.273100733757019,1.2937499284744265,0.6027551293373108,1
0.2099149227142405,13.23792610168457,-11.765118598937988,1.4227193593978895,-11.866759300231935,0.4346571564674377,-0.6017084717750549,7.415837764739988,-6.555198192596438,-18.405797958374023,0.1981067474562084,-0.3600957021268675,0.4707111981162504,0.7807149094836376,1.1052997112274168,0.8461988607989714,-3.0968117713928223,1.8954248428344729,0.055454358458519,0.2321552783250805,8.296164512634277,-7.129516124725343,-4.661720275878906,-0.0522300414741039,12.298620223999023,-15.42606258392334,1.2638955116271973,1.2997643947601318,0.602453351020813,1
0.21190333366394043,13.216357803344728,-11.764264106750488,1.421616673469545,-11.862418174743652,0.4700818955898285,-0.6064966917037965,7.447805404663085,-6.515595436096192,-18.258180618286133,0.19950444549677,-0.3592018653016067,0.4711737015429319,0.7804917290818685,1.1046472787857058,0.8461149374591277,-3.1007456779479976,1.8948345184326167,0.0569261722266674,0.2356740981340404,8.299086570739746,-7.126721382141112,-4.653794288635254,-0.0749024003744125,12.318625450134276,-15.422025680541992,1.2610805034637451,1.3023993968963623,0.6023080945014954,1
0.21388745307922363,13.19479808807373,-11.763344764709473,1.4205052852630629,-11.85794734954834,0.5055556297302245,-0.611267387866974,7.445077419281005,-6.596372604370117,-18.35724449157715,0.2009014722094254,-0.3583052730644259,0.4716322984470301,0.7802684825237299,1.1039851903915403,0.8460262457477019,-3.104685544967652,1.894243240356445,0.0583853349089622,0.2391979396343227,8.302007675170897,-7.123852729797362,-4.6459174156188965,-0.0998612493276596,12.38451099395752,-15.50294017791748,1.2582651376724243,1.305033802986145,0.602162778377533,1
0.2158825397491526,13.173246955871582,-11.76236057281494,1.4193853139877333,-11.853352546691896,0.5410887598991393,-0.6160165667533876,7.547922134399411,-6.588349819183352,-18.476089477539062,0.202298371226908,-0.3574061283296719,0.4720870377092313,0.7800449072061538,1.1033135652542114,0.8459337393390105,-3.1086320877075195,1.893877625465393,0.0598634034395218,0.2429820150136944,8.304931640625,-7.120913028717041,-4.638097286224365,-0.1221347451210022,12.40485668182373,-15.499686241149902,1.255449295043945,1.3079830408096311,0.6021515727043152,1
0.21792078018188477,13.130170440673828,-11.76020050048828,1.4171196222305311,-11.843939781188965,0.6117079854011535,-0.6253567934036256,7.492382526397704,-6.580469608306887,-18.327726364135746,0.2050910752465024,-0.3555999292752424,0.4729843027771506,0.7795974541262234,1.1019399166107178,0.8457358519183553,-3.1165449619293213,1.8931467533111568,0.0627801269292831,0.2505645453929897,8.310822486877441,-7.115267753601074,-4.6221604347229,-0.1100752651691436,12.331088066101074,-15.447513580322266,1.2498188018798828,1.3138817548751829,0.6021291613578796,1
0.21990108489990234,13.108645057678224,-11.759024620056152,1.4159742593765274,-11.839120864868164,0.6467930078506469,-0.6299472451210023,7.5018930435180655,-6.436548709869387,-18.22022819519043,0.2064869902427509,-0.3546928585671917,0.4734269816721302,0.7793734611639921,1.1012383699417114,0.8456304709063929,-3.120511293411255,1.8927825689315805,0.0642193928360939,0.2543639838695521,8.313787460327147,-7.112560749053955,-4.6140403747558585,-0.0762171670794487,12.237053871154783,-15.397799491882324,1.2470043897628784,1.3168327808380127,0.6021178364753723,1
0.2219531536102295,13.087128257751464,-11.757784843444824,1.4148205518722548,-11.834172248840332,0.681924283504486,-0.6345186829566957,7.4635133743286115,-6.442142963409425,-18.399805068969727,0.2078828249631366,-0.3537832986803534,0.4738657391386911,0.7791491320220642,1.1005272865295412,0.8455212751971648,-3.124484300613404,1.89241623878479,0.0656446292996407,0.2581680417060848,8.316751480102539,-7.109781742095947,-4.60596227645874,-0.0528371296823024,12.180925369262695,-15.43640422821045,1.2441887855529783,1.3197818994522097,0.6021066904067993,1
0.22391629219055176,13.065620994567873,-11.756481170654297,1.4136586189270033,-11.829093933105469,0.717101216316223,-0.6390708088874818,7.410776138305661,-6.411057472229005,-18.282695770263672,0.2092782782936184,-0.3528709451882774,0.4743004785739776,0.7789247423858652,1.0998061895370486,0.8454073111163551,-3.128463983535766,1.8920470476150515,0.0670555830001831,0.2619767785072323,8.31971549987793,-7.106932163238525,-4.5979270935058585,-0.0751401782035827,12.202515602111816,-15.433768272399902,1.2413711547851562,1.3227288722991943,0.6020954251289368,1
0.22592639923095703,13.022635078430175,-11.753681182861328,1.4113100767135631,-11.818551063537598,0.7876009941101073,-0.648112177848816,7.570432186126706,-6.577259540557862,-18.58748245239257,0.2120683157446354,-0.3510382974587692,0.4751582065268032,0.7784753187768472,1.0983355045318606,0.8451660315143029,-3.1364426612854004,1.89146625995636,0.0699579492211342,0.2693937718868252,8.325637817382812,-7.101019382476808,-4.581993103027344,-0.1198081448674202,12.290553092956545,-15.514992713928224,1.2359966039657593,1.3286292552947998,0.60193932056427,1
0.2279214859008789,13.001156425476074,-11.752184867858888,1.4101235866546644,-11.813090324401855,0.822933793067932,-0.6525970697402955,7.446996688842771,-6.539265155792237,-18.431617736816406,0.2134630823231908,-0.3501181929696933,0.4755815368240741,0.7782499375321343,1.09758722782135,0.8450391928302209,-3.1404411792755127,1.8911032676696773,0.0711844861507416,0.2728387713432308,8.328597068786621,-7.097959041595459,-4.574109077453613,-0.0777747556567192,12.248734474182127,-15.546379089355469,1.2334357500076294,1.331262707710266,0.6019282937049866,1
0.22991585731506348,12.979688262939453,-11.750624656677244,1.4089288711547865,-11.807498931884766,0.8583101034164428,-0.6570614576339723,7.481918811798098,-6.491614341735841,-18.40731430053711,0.2148572113350552,-0.3491955432423272,0.4760010870473102,0.7780243032494542,1.0968303680419924,0.8449075857745583,3.138740364705221,1.8907413482666016,0.0723992437124252,0.2762877047061916,8.331552505493164,-7.094831943511963,-4.5662689208984375,-0.0904728919267654,12.278087615966797,-15.541296005249023,1.2308759689331057,1.3338968753814695,0.6019173264503479,1
0.23191285133361816,12.958230590820312,-11.74899959564209,1.4077261686325084,-11.801776885986328,0.8937293887138366,-0.6615051031112672,7.556072711944579,-6.5362396240234375,-18.605499267578125,0.2162511564848633,-0.3482708577549526,0.4764165874192012,0.7777982271704091,1.0960644483566286,0.8447726408587855,3.1347308794604705,1.8903794288635247,0.0736018419265747,0.2797404825687404,8.334505081176758,-7.091637134552003,-4.558473587036133,-0.1210627257823944,12.293487548828123,-15.54384994506836,1.2283167839050293,1.336530685424805,0.601906418800354,1
0.23391914367676492,12.936783409118652,-11.747309684753418,1.4065153598785414,-11.795928001403809,0.9292021989822388,-0.6659239530563356,7.485458850860598,-6.594787597656251,-18.536163330078125,0.2176446538052685,-0.3473432971933296,0.4768287851968774,0.7775716996988259,1.0952910184860232,0.8446324507342737,3.1307159105884,1.8901623487472528,0.0749119892716408,0.2829845547676082,8.337458610534668,-7.088375568389893,-4.550731658935547,-0.1328968405723571,12.366632461547852,-15.6253023147583,1.2260075807571411,1.3391621112823486,0.6017612218856812,1
0.23591899871826172,12.89392147064209,-11.743738174438477,1.4040699005126964,-11.78395175933838,0.999498188495636,-0.6746650338172914,7.451828479766848,-6.5294585227966335,-18.496387481689453,0.2204306763299587,-0.3454804553876122,0.4776400487061587,0.7771187526690263,1.0937123298645024,0.8443382422076624,3.1226657072650355,1.888808012008667,0.0779255181550979,0.2918932735919948,8.343414306640625,-7.082073211669923,-4.5347418785095215,-0.1214302703738212,12.29779052734375,-15.574041366577148,1.2191075086593628,1.3456884622573853,0.601605236530304,1
0.23788809776305442,12.872507667541504,-11.741857528686523,1.4028353691101088,-11.77783203125,1.0343422889709473,-0.6789790987968446,7.567755699157714,-6.426683902740481,-18.4409122467041,0.2218231829045456,-0.3445447472682062,0.4780380642482679,0.7768931726986362,1.0929032564163208,0.8441832701312464,3.1186283270465296,1.887673497200012,0.0794793516397476,0.2971791625022884,8.346418380737305,-7.079021453857423,-4.526522636413574,-0.1545109450817108,12.228617668151855,-15.405413627624512,1.2147696018218994,1.3492671251296997,0.6015943288803101,1
0.23989510536193848,12.851104354858398,-11.739913940429688,1.4015930891036998,-11.771574020385742,1.0692039728164673,-0.6832785010337831,7.450874805450437,-6.370553016662599,-18.282909393310547,0.2232150360937549,-0.3436064280545208,0.4784304265384631,0.7766685246767127,1.0920797586441042,0.8440230528460906,3.1145830790149134,1.886534214019776,0.0811504125595093,0.30285170674324,8.349429130554201,-7.075885772705077,-4.51832914352417,-0.1229004934430122,12.138106346130373,-15.35374641418457,1.2101770639419556,1.3531605005264282,0.6015833616256714,1
0.24187040328980203,12.829713439941404,-11.737906455993652,1.4003429412841808,-11.765169143676758,1.104060173034668,-0.6875705122947694,7.504850864410398,-6.370276451110841,-18.295839309692383,0.2246063519521473,-0.3426652146218476,0.4788169567713745,0.7764450136739309,1.0912408828735352,0.8438571135150359,3.1105290094958704,1.8850138187408447,0.0827915892004967,0.3088668286800381,8.352443695068361,-7.072661876678468,-4.510140895843506,-0.1355910152196884,12.169642448425291,-15.35006046295166,1.205075740814209,1.357052206993103,0.6015725135803223,1
0.24393844604492188,12.786966896057129,-11.733701705932615,1.3978193998336803,-11.751961708068848,1.1738762855529783,-0.6960884928703309,7.559094429016111,-6.5299158096313485,-18.45067024230957,0.2273875583787188,-0.3407746487424095,0.4795727312124493,0.7760009874648899,1.089518427848816,0.8435090223895476,3.102395359669821,1.8818269968032844,0.0858837813138962,0.3211249411106105,8.358487129211426,-7.065950870513916,-4.4939236640930185,-0.1670532673597335,12.268516540527346,-15.433713912963867,1.1946218013763428,1.3648372888565063,0.6016849875450134,1
0.24591827392577414,12.76561222076416,-11.7315034866333,1.3965461254119886,-11.745160102844238,1.2088350057601929,-0.7003135681152345,7.571786403656005,-6.483159065246582,-18.60717964172364,0.2287771165200042,-0.339825595480204,0.4799412453508513,0.7757808947276229,1.088633179664612,0.8433268705951136,3.0983160177813933,1.8801622390747068,0.0873345360159874,0.3273673951625819,8.361516952514647,-7.062465190887451,-4.485897541046144,-0.1331521719694137,12.221111297607422,-15.467968940734863,1.18927001953125,1.3687318563461304,0.6018081307411194,1
0.24794244766236062,12.744269943237304,-11.729242324829102,1.3952652215957655,-11.73823070526123,1.243841528892517,-0.704510271549225,7.485044956207273,-6.523609161376952,-18.534040451049805,0.2301662166988805,-0.3388737559413774,0.4803039858517173,0.7755618424082383,1.0877330303192143,0.8431389967547815,3.094228092824118,1.8786455392837524,0.0888906344771385,0.3334045708179469,8.36455249786377,-7.058894634246826,-4.477941036224365,-0.154014840722084,12.246450424194336,-15.468938827514648,1.18417227268219,1.3726258277893066,0.6017969846725464,1
0.24991631507873535,12.72294101715088,-11.726917266845703,1.3939766883850109,-11.731170654296877,1.2788840532302856,-0.7086820006370546,7.586697578430175,-6.485784530639648,-18.5595932006836,0.2315547891137248,-0.3379192128931249,0.4806608901539071,0.7753438552491679,1.0868179798126223,0.8429454008685511,3.090131823216573,1.8771264553070068,0.0904245749115944,0.3394477367401118,8.367596626281737,-7.055237770080566,-4.470040321350098,-0.1747374087572097,12.272089004516602,-15.47021198272705,1.1790724992752075,1.3765183687210083,0.6017859578132629,1
0.25191378593444824,12.701624488830564,-11.724528312683104,1.3926806449890148,-11.723978996276855,1.3139619827270508,-0.7128283381462098,7.512643814086911,-6.445273399353027,-18.38848114013672,0.2329427441160539,-0.3369620632728974,0.4810118498651828,0.7751269871239352,1.0858879089355469,0.8427460829364222,3.0860274473773406,1.875606894493103,0.0919367074966431,0.3454964458942408,8.37064266204834,-7.051495552062987,-4.462194919586182,-0.1314333379268646,12.232131958007812,-15.500471115112305,1.1739723682403564,1.3804104328155518,0.601775050163269,1
0.2539217472076416,12.65903148651123,-11.719559669494627,1.390066266059877,-11.70945644378662,1.3837223052978516,-0.7209283709526064,7.459201335906981,-6.510111331939697,-18.69566345214844,0.2357169726009445,-0.3350397220446772,0.4816964993635583,0.7746963120997574,1.083984375,0.8423298040973113,3.0777946154223845,1.8724278211593628,0.094641700387001,0.3574326932430263,8.37681770324707,-7.044214725494385,-4.446334362030028,-0.1262202560901641,12.204327583312988,-15.539496421813965,1.1637752056121826,1.3878817558288574,0.6018871665000916,1
0.2559170722961426,12.637755012512208,-11.716980934143065,1.3887482881546034,-11.70212173461914,1.4183921813964844,-0.7248850464820864,7.489190101623534,-6.401409626007081,-18.36356735229492,0.2371029111762266,-0.3340753175360124,0.482030061252924,0.7744823508469856,1.0830117464065554,0.8421137968646453,3.0736680666552947,1.870540738105774,0.0958220064640045,0.3630629181861873,8.379937171936035,-7.040675163269043,-4.438313961029053,-0.1686646789312362,12.17608642578125,-15.461865425109863,1.1586778163909912,1.3911453485488892,0.6018762588500977,1
0.25791001319884543,12.616491889953611,-11.71433925628662,1.3874231576919571,-11.694659233093262,1.4531060457229614,-0.7288106679916384,7.495830535888673,-6.320833206176759,-18.38103485107422,0.2384881469393798,-0.3331084844080366,0.4823582321922682,0.7742691245433667,1.0820263624191282,0.8418920675860804,3.0695348421679896,1.8687990903854368,0.097114123404026,0.3684900104999537,8.383054733276367,-7.037051200866699,-4.430365562438965,-0.1476255804300308,12.08210563659668,-15.411908149719238,1.1538329124450684,1.394407033920288,0.6017311811447144,1
0.2599058151245117,12.616491889953611,-11.71433925628662,1.3874231576919571,-11.694659233093262,1.4531060457229614,-0.7288106679916384,7.495830535888673,-6.320833206176759,-18.38103485107422,0.2384881469393798,-0.3331084844080366,0.4823582321922682,0.7742691245433667,1.0820263624191282,0.8418920675860804,3.0695348421679896,1.8687990903854368,0.097114123404026,0.3684900104999537,8.383054733276367,-7.037051200866699,-4.430365562438965,-0.1476255804300308,12.08210563659668,-15.411908149719238,1.1538329124450684,1.394407033920288,0.6017311811447144,1
0.2619340419769358,12.552786445617675,-11.70603370666504,1.3834053277969374,-11.67143440246582,1.5572797060012815,-0.7404752373695376,7.467850685119628,-6.400031566619872,-18.49326705932617,0.2426377472942525,-0.3301948233195767,0.483307159498525,0.7736358909838603,1.0789866447448728,0.8411920706378386,3.0570972601519983,1.862148880958557,0.1005242019891739,0.3862234652042385,8.392414093017576,-7.025660991668701,-4.406740188598633,-0.1392612159252166,12.138307571411133,-15.53297996520996,1.137270212173462,1.4041951894760132,0.6015642881393433,1
0.2638826370239329,12.531580543518064,-11.703139305114744,1.3820519447326671,-11.66340160369873,1.5919710397720337,-0.7443391084671023,7.552545547485352,-6.440805435180665,-18.62154006958008,0.2440185961392314,-0.3292197703543006,0.4836104208900758,0.7734275844270256,1.0779427289962766,0.8409474531756801,3.0529387632953093,1.859125733375549,0.1015159636735916,0.3928856849670406,8.395533561706543,-7.021678924560548,-4.398915767669678,-0.1557468622922897,12.1336669921875,-15.44452667236328,1.130648493766785,1.4074567556381226,0.6015533804893494,1
0.26592445373535156,12.510388946533205,-11.70018196105957,1.3806916475296034,-11.655223846435549,1.6266465187072754,-0.7481894493103031,7.598095893859861,-6.451175689697268,-18.64298248291016,0.245398068557707,-0.3282432601368469,0.4839062204386126,0.773221132628757,1.0768811702728274,0.8406975905047815,3.048773829136984,1.855723738670349,0.1024526059627533,0.3998885452747341,8.398653030395508,-7.017597675323486,-4.391131401062012,-0.1846059113740921,12.155156135559082,-15.451233863830565,1.1235190629959106,1.410717487335205,0.601542592048645,1
0.26788878440856223,12.489212608337402,-11.697161674499512,1.379324316978456,-11.646912574768065,1.661339282989502,-0.7520140409469607,7.523624420166016,-6.4373445510864284,-18.457773208618164,0.2467762605994353,-0.3272650049642941,0.4841949957819569,0.7730163645033596,1.07580304145813,0.8404420057879851,3.0446024576770228,1.8521745204925537,0.1032248586416244,0.4070994257926937,8.401768684387207,-7.013419151306152,-4.383425712585448,-0.1954084038734436,12.19111442565918,-15.450599670410154,1.1161351203918457,1.4139764308929443,0.6016659140586853,1
0.2698645591735911,12.446905708312988,-11.690932273864744,1.3765691518783585,-11.630156517028809,1.7303247451782229,-0.7594910264015201,7.60380983352661,-6.468741893768313,-18.634666442871094,0.2495274047086483,-0.3253038829085998,0.4847500210344412,0.772613017733369,1.073594212532044,0.8399127165423792,3.036242548619406,1.844770789146424,0.1049289256334305,0.4212054312229153,8.408082008361816,-7.005183696746826,-4.367945194244385,-0.1796346008777618,12.175494194030762,-15.486597061157228,1.1013695001602173,1.420185089111328,0.6015103459358215,1
0.27809596061706543,12.40466079711914,-11.684453010559082,1.37378764152527,-11.613152503967283,1.7989784479141235,-0.7667462825775149,7.535245418548581,-6.336998462677005,-18.458904266357425,0.2522721500900626,-0.3233371586583305,0.485276305762745,0.7722167773267796,1.071319937705994,0.8393605391131804,3.0278614203082483,1.837226390838623,0.1062761768698692,0.4351380169391628,8.414462089538574,-6.996979713439941,-4.352546215057373,-0.2064147889614104,12.09395694732666,-15.450080871582031,1.0866042375564575,1.4260767698287964,0.6014885902404785,1
0.2790961265564107,12.383561706542968,-11.681119918823242,1.3723870515823378,-11.604458808898926,1.8333548307418823,-0.7703219056129458,7.542749881744384,-6.274212360382081,-18.55327796936035,0.2536419266398808,-0.3223516976523199,0.4855284400187882,0.7720215605823446,1.0701577663421626,0.8390753904925751,3.0236631075488494,1.8336007595062256,0.1070516034960747,0.4419052302837368,8.417651176452638,-6.992730140686035,-4.344995975494385,-0.1695261150598526,12.018317222595217,-15.390294075012209,1.0794754028320312,1.4290214776992798,0.6013435125350952,1
0.28009653091430664,12.383561706542968,-11.681119918823242,1.3723870515823378,-11.604458808898926,1.8333548307418823,-0.7703219056129458,7.542749881744384,-6.274212360382081,-18.55327796936035,0.2536419266398808,-0.3223516976523199,0.4855284400187882,0.7720215605823446,1.0701577663421626,0.8390753904925751,3.0236631075488494,1.8336007595062256,0.1070516034960747,0.4419052302837368,8.417651176452638,-6.992730140686035,-4.344995975494385,-0.1695261150598526,12.018317222595217,-15.390294075012209,1.0794754028320312,1.4290214776992798,0.6013435125350952,1
0.28191256523133035,12.383561706542968,-11.681119918823242,1.3723870515823378,-11.604458808898926,1.8333548307418823,-0.7703219056129458,7.542749881744384,-6.274212360382081,-18.55327796936035,0.2536419266398808,-0.3223516976523199,0.4855284400187882,0.7720215605823446,1.0701577663421626,0.8390753904925751,3.0236631075488494,1.8336007595062256,0.1070516034960747,0.4419052302837368,8.417651176452638,-6.992730140686035,-4.344995975494385,-0.1695261150598526,12.018317222595217,-15.390294075012209,1.0794754028320312,1.4290214776992798,0.6013435125350952,1
0.28388333320618386,12.383561706542968,-11.681119918823242,1.3723870515823378,-11.604458808898926,1.8333548307418823,-0.7703219056129458,7.542749881744384,-6.274212360382081,-18.55327796936035,0.2536419266398808,-0.3223516976523199,0.4855284400187882,0.7720215605823446,1.0701577663421626,0.8390753904925751,3.0236631075488494,1.8336007595062256,0.1070516034960747,0.4419052302837368,8.417651176452638,-6.992730140686035,-4.344995975494385,-0.1695261150598526,12.018317222595217,-15.390294075012209,1.0794754028320312,1.4290214776992798,0.6013435125350952,1
0.28594970703125,12.383561706542968,-11.681119918823242,1.3723870515823378,-11.604458808898926,1.8333548307418823,-0.7703219056129458,7.542749881744384,-6.274212360382081,-18.55327796936035,0.2536419266398808,-0.3223516976523199,0.4855284400187882,0.7720215605823446,1.0701577663421626,0.8390753904925751,3.0236631075488494,1.8336007595062256,0.1070516034960747,0.4419052302837368,8.417651176452638,-6.992730140686035,-4.344995975494385,-0.1695261150598526,12.018317222595217,-15.390294075012209,1.0794754028320312,1.4290214776992798,0.6013435125350952,1
0.2879157066345215,12.320361709594728,-11.67074489593506,1.3681467771530165,-11.577557563781738,1.9364680051803589,-0.7809072732925417,7.521249771118161,-6.382211685180665,-18.72589874267578,0.2577411488647857,-0.3193888007238289,0.4862410620182444,0.7714466434961167,1.0665742158889768,0.8381865660296839,3.011040274296896,1.820935726165772,0.10856032371521,0.4631948471069332,8.427186012268066,-6.979389190673827,-4.322766304016113,-0.1644293069839477,12.07503890991211,-15.517426490783691,1.05605947971344,1.437225341796875,0.6011770367622375,1
0.28990793228149414,12.299328422546388,-11.66716194152832,1.3667205572128311,-11.568304061889648,1.970778107643128,-0.7844058275222779,7.551588058471679,-6.368062973022464,-18.631616592407227,0.2591032753461301,-0.3183992431141016,0.4864625672722017,0.7712597392138483,1.065343737602234,0.8378780523883265,3.0068238417254847,1.81580650806427,0.1089543774724007,0.4709292650222774,8.430354118347168,-6.9747276306152335,-4.315463542938232,-0.1829752922058104,12.076116561889648,-15.429738998413086,1.0471532344818115,1.4398534297943115,0.6010323166847229,1
0.29192185401916504,12.278312301635742,-11.6635160446167,1.3652880191802994,-11.558914184570312,2.005075454711914,-0.7878819704055788,7.553576946258544,-6.444015502929688,-18.710006713867188,0.2604628291565231,-0.3174095728235874,0.4866755214974884,0.7710753623887068,1.06409478187561,0.8375642935382301,3.0026045481311248,1.810160756111145,0.1090266332030296,0.4788112640380855,8.43351936340332,-6.9699554443359375,-4.30825138092041,-0.193046361207962,12.146014213562012,-15.522183418273926,1.037739634513855,1.4421672821044922,0.6010218858718872,1
0.29400992393495073,12.25731334686279,-11.659808158874512,1.363849282264711,-11.549389839172363,2.0393705368041988,-0.7913311719894411,7.550901889801023,-6.442842483520509,-18.571468353271484,0.2618200058980457,-0.3164195224674762,0.4868794843978645,0.7708938564974241,1.062825560569763,0.8372448126422327,2.99838096300234,1.8045120239257808,0.1091674938797951,0.4870866537094112,8.436676025390625,-6.965071678161621,-4.301140308380127,-0.2208032757043838,12.141195297241213,-15.43869686126709,1.0280722379684448,1.4447956085205078,0.6010113358497621,1
0.2958805561065674,12.23633155822754,-11.656038284301758,1.3624042272567762,-11.539732933044435,2.0736627578735347,-0.7947528958320621,7.553424358367919,-6.417929649353027,-18.701690673828125,0.2631747148529204,-0.3154291811179947,0.4870746945900688,0.7707150855220797,1.0615370273590088,0.8369196097003386,2.994153801594869,1.798493504524231,0.1091297492384911,0.4953065812587734,8.43983268737793,-6.960074424743652,-4.294138431549071,-0.1758173406124115,12.105783462524414,-15.46557903289795,1.0181525945663452,1.4471096992492676,0.6010007262229919,1
0.29787373542786355,12.215367889404297,-11.652206420898438,1.360953211784364,-11.530280113220217,2.107472896575928,-0.7980545759201052,7.547803401947019,-6.411063671112061,-18.540576934814453,0.2645266646847941,-0.314438544037923,0.4872610044814358,0.7705392651940535,1.0602289438247678,0.8365882078753875,2.9899235407458704,1.7924758195877075,0.1090593785047531,0.5035274624824521,8.443088531494139,-6.955443859100343,-4.2869133949279785,-0.2219918072223664,12.088125228881836,-15.389927864074709,1.0082325935363772,1.449422836303711,0.6009901165962219,1
0.2999436855316091,12.19442138671875,-11.648313522338867,1.3594962358474745,-11.520700454711914,2.1413013935089107,-0.8013195991516116,7.482163429260253,-6.269181728363037,-18.4226131439209,0.2658763176976036,-0.3134478847627481,0.4874384963157928,0.7703660944867191,1.05890154838562,0.8362515608416947,2.9856897036181853,1.786460876464844,0.1089570745825768,0.5117495059967037,8.446337699890138,-6.950699806213379,-4.279819011688232,-0.1959808766841888,12.009474754333494,-15.332003593444824,0.9983129501342772,1.4517371654510498,0.6009795665740967,1
0.3019125461578369,12.173492050170898,-11.64435863494873,1.3580334186553968,-11.511000633239744,2.175170660018921,-0.8045391440391543,7.468794345855713,-6.2076997756958034,-18.46241950988769,0.267223089970878,-0.3124573679868117,0.4876070579816741,0.7701958000298538,1.0575550794601438,0.8359091917621062,2.9814537207232874,1.7804522514343264,0.108728013932705,0.5195780396461482,8.44957447052002,-6.945847034454348,-4.272881984710693,-0.1779786795377731,11.954001426696776,-15.369839668273926,0.9886483550071716,1.4537357091903689,0.600969135761261,1
0.30396318435668945,12.15258083343506,-11.640341758728027,1.3565648794174208,-11.501174926757812,2.209056854248047,-0.8077208995819094,7.487176418304442,-6.255396842956544,-18.744340896606445,0.2685673482678321,-0.3114667661315081,0.4877673097535202,0.7700279764890227,1.056191086769104,0.8355611006366179,2.9772153536425985,1.774441719055176,0.1084667146205902,0.5274069905281062,8.452804565429688,-6.940884590148926,-4.266077518463135,-0.1420405060052871,11.912760734558104,-15.399428367614744,0.9789807200431824,1.455731749534607,0.6009584665298462,1
0.3059215545654368,12.089956855773924,-11.627922058105469,1.3521252870559706,-11.470972061157228,2.3109242916107178,-0.8169928789138797,7.493359088897704,-6.344013690948487,-18.764646530151367,0.2725846105515364,-0.308495537412856,0.4881976536000075,0.7695395925527597,1.0519938468933103,0.8344829718219207,2.964488093053,1.7571892738342283,0.1075245812535286,0.5498300194740291,8.462433815002441,-6.925368785858152,-4.24656343460083,-0.2154786437749862,12.005002975463867,-15.421916007995604,0.951255977153778,1.4614131450653076,0.6009266972541809,1
0.3079245090484548,12.069119071960449,-11.623658180236816,1.3506343364715592,-11.460660934448242,2.344939947128296,-0.8199933767318729,7.5163636207580575,-6.266994476318359,-18.85059356689453,0.2739186959954454,-0.3075054293320337,0.4883247034872856,0.7693815327128218,1.0505610704422,0.8341124693499968,2.96024209657778,1.7515703439712529,0.1071123480796814,0.5569281578063959,8.465627670288086,-6.919992923736572,-4.240342617034912,-0.1674681007862091,12.000625610351562,-15.539443016052244,0.9423535466194152,1.4630961418151855,0.6009160876274109,1
0.3099224567413259,12.0483003616333,-11.619332313537598,1.3491380214691175,-11.450225830078123,2.378968954086304,-0.8229535222053531,7.531668186187741,-6.370586872100831,-18.902568817138672,0.2752502938270356,-0.3065154324536817,0.4884438237916541,0.7692257122689351,1.0491123199462893,0.8337362448321746,2.9559946695910853,1.7459512948989868,0.1066713035106659,0.5640265941619871,8.468811988830566,-6.914517879486084,-4.234248638153076,-0.1942657977342605,12.02989387512207,-15.54871654510498,0.9334492683410645,1.4647783041000366,0.6009054183959961,1
0.3119351863861155,12.02750072479248,-11.614944458007812,1.3476365804672252,-11.439697265625,2.4131484031677246,-0.8258226513862613,7.527697563171388,-6.299937248229981,-18.93777656555176,0.2765815013975638,-0.3055273720031071,0.4885528117883054,0.7690720695326837,1.0476406812667851,0.8333595434771932,2.951740566884176,1.7403727769851691,0.1028908342123032,0.5732338428497311,8.471945762634277,-6.908984661102295,-4.2284464836120605,-0.1751426607370376,11.975975036621096,-15.58547592163086,0.9227696061134338,1.4667779207229614,0.6043821573257446,1
0.31394052505493164,12.006721115112304,-11.61049461364746,1.3461298942565931,-11.429017066955565,2.4472134113311768,-0.8286963105201725,7.56455898284912,-6.412006378173827,-18.92330741882324,0.277911847728412,-0.3045414950916728,0.4886504927337522,0.7689214385166858,1.0461429357528689,0.8329818884478968,2.9474795500384734,1.7338147163391109,0.099037766456604,0.5832421779632565,8.475031852722168,-6.90338134765625,-4.222666263580321,-0.2649854421615601,12.07575225830078,-15.57593822479248,0.9108195900917052,1.4687776565551758,0.6077248454093933,1
0.31592273712158203,11.985960578918457,-11.605984687805176,1.34461808204651,-11.418536186218262,2.4806482791900635,-0.8315119147300724,7.587143421173098,-6.2666783332824725,-18.76310157775879,0.2792411404855052,-0.3035583509673187,0.4887360083241444,0.7687742368119126,1.0446169376373289,0.8326037565814426,2.9432116190539763,1.7265065908432011,0.0950976014137268,0.5943055152893063,8.478190422058105,-6.898177146911621,-4.216532707214356,-0.253166139125824,11.966150283813477,-15.427261352539062,0.8976003527641296,1.4710923433303833,0.6110672354698181,1
0.31795501708985086,11.965219116210935,-11.60141372680664,1.3431011438369764,-11.407914161682127,2.5140013694763184,-0.8343186378479007,7.559069633483888,-6.236085414886477,-18.6948356628418,0.2805690664248232,-0.3025775486364471,0.4888087256902212,0.7686311571330972,1.043060541152954,0.8322237173663551,2.938936058674948,1.718452215194702,0.0909797102212906,0.6060277819633481,8.481302261352539,-6.892886638641357,-4.210479259490967,-0.2114741802215576,11.906545639038086,-15.358475685119627,0.8833644390106201,1.4734065532684326,0.6144097447395325,1
0.31995463371276855,11.944496726989744,-11.596782684326172,1.3415790796279918,-11.39715576171875,2.547295093536377,-0.8371074199676517,7.419602394104003,-6.083529949188232,-18.487812042236328,0.2818953184187459,-0.3015993690732356,0.4888685392998857,0.7684922909899723,1.0414738655090332,0.8318417708026336,2.934653822575705,1.7099385261535651,0.0869947075843811,0.6180210709571835,8.484368324279785,-6.887500762939452,-4.204535484313965,-0.1289850324392318,11.73566436767578,-15.222710609436035,0.8686219453811646,1.4757198095321655,0.6174839735031128,1
0.32192325592041016,11.9237943649292,-11.592090606689451,1.3400520086288463,-11.38626766204834,2.580551147460937,-0.8398692607879642,7.443174362182616,-6.1600923538208034,-18.722728729248047,0.2832198774151071,-0.3006242482540684,0.4889148100050961,0.7683579055077971,1.0398552417755127,0.8314583937274382,2.930364672337668,1.7010545730590818,0.0828921645879746,0.6303380131721493,8.487392425537111,-6.882018566131593,-4.198731899261476,-0.1334623247385025,11.810041427612305,-15.3160982131958,0.8533705472946167,1.4780325889587402,0.6205580830574036,1
0.32393336296081543,11.861808395385742,-11.577651977539062,1.33544158935547,-11.352874755859377,2.680293321609497,-0.8479090332984928,7.491836547851562,-6.219642162322997,-18.5249137878418,0.2871814638718544,-0.2977151064741289,0.4889739057291157,0.7679824488238847,1.0348122119903571,0.8302920500384734,2.9174595514880584,1.6740828752517702,0.0712098553776741,0.666625082492828,8.496236801147461,-6.864970684051514,-4.182390213012694,-0.2265401929616928,11.87644863128662,-15.254648208618164,0.8078750967979431,1.4846563339233398,0.6287071704864502,1
0.325915813446052,11.84118709564209,-11.572718620300291,1.3338952064514171,-11.341510772705078,2.713563680648804,-0.8504917025566104,7.503173828124999,-6.152389526367188,-18.557035446166992,0.288497824303088,-0.2967509754214411,0.4889678369960496,0.7678660809947349,1.033071637153626,0.8298977057086394,2.9131470362292693,1.6651884317398074,0.0674972459673882,0.6782106757163998,8.499116897583008,-6.85908842086792,-4.1773338317871085,-0.1805263757705688,11.84770393371582,-15.276448249816896,0.7931343317031859,1.4866541624069214,0.6311103701591492,1
0.3279154300689697,11.820586776733398,-11.567724227905272,1.3323442935943617,-11.330031394958494,2.746849775314331,-0.8530223369598392,7.576804637908933,-6.232788562774657,-18.834470748901367,0.289811674756668,-0.2957894856598812,0.4889489264899996,0.76775433612066,1.0313016176223757,0.8294995466815398,2.9088299910174773,1.6564378738403318,0.0638997703790665,0.6895948052406308,8.501964569091799,-6.853106498718263,-4.172472000122069,-0.2152880877256393,11.875958442687988,-15.289700508117676,0.7786456346511841,1.4886490106582642,0.6333793997764587,1
0.3299384117126536,11.800007438659668,-11.56266975402832,1.3307888507843029,-11.318438529968262,2.780150890350342,-0.855500161647797,7.411344051361081,-6.203963279724122,-18.776870727539062,0.2911236203230637,-0.294830498911798,0.4889179421536549,0.7676465726111519,1.0295040607452393,0.8290980497943328,2.904507939015524,1.6478372812271118,0.0604217126965523,0.7007796168327328,8.50478458404541,-6.847026348114014,-4.167803287506104,-0.1778296381235122,11.841001510620115,-15.315062522888184,0.7644135355949402,1.4906464815139768,0.6355143189430237,1
0.33191490173340554,11.779450035095216,-11.557554244995115,1.3292289972305311,-11.306730270385742,2.8134546279907227,-0.8579287528991703,7.606114387512206,-6.267770767211915,-18.94332504272461,0.2924332075648324,-0.2938741761941864,0.4888744731481233,0.7675431826182009,1.02767813205719,0.8286927382098601,2.9001815954791472,1.639243006706238,0.0568994879722596,0.7119550704956051,8.507573127746582,-6.84084939956665,-4.163311958312988,-0.2597621679306029,11.974756240844728,-15.401118278503418,0.7501817941665649,1.492644429206848,0.6376493573188782,1
0.33393120765686035,11.758913612365724,-11.552379608154297,1.3276649713516249,-11.29524040222168,2.846285581588745,-0.8602413535118106,7.483839511871338,-6.183860778808595,-18.5820541381836,0.2937406664034406,-0.2929201318604852,0.4888190710193868,0.7674438957079808,1.0258251428604124,0.8282831350909632,2.8958507219897665,1.6307953596115117,0.05349775031209,0.7229315638542172,8.510429382324219,-6.835025310516357,-4.158636569976807,-0.26215460896492,11.866337776184082,-15.253013610839846,0.7362048029899597,1.4946423768997192,0.6396501660346985,1
0.33591246604920144,11.738398170471193,-11.547144889831545,1.3260967731475843,-11.283637046813965,2.879117727279663,-0.8625032901763919,7.54543113708496,-6.121326923370362,-18.776302337646484,0.2950455417702265,-0.2919687195184988,0.4887516519547621,0.7673488240792011,1.023945450782776,0.8278692404376429,2.8915167490588587,1.6222627162933352,0.0502308681607247,0.7334562540054318,8.513259887695312,-6.829102516174316,-4.154135227203368,-0.2333549559116363,11.825737953186035,-15.281908988952637,0.7224807143211365,1.4963243007659912,0.6413827538490295,1
0.3379027843475342,11.71790370941162,-11.541850090026855,1.3245245218276989,-11.271920204162598,2.91195011138916,-0.8647139072418216,7.424927711486815,-6.059230327606202,-18.75550651550293,0.2963480483285096,-0.2910198185275803,0.488672662982776,0.7672576672340131,1.0220402479171753,0.8274510542498983,2.8871796766864235,1.6137344837188718,0.0469213277101517,0.7439718246459958,8.516066551208496,-6.823081970214844,-4.149807453155519,-0.1578268110752105,11.681039810180664,-15.236820220947266,0.7087560296058655,1.498005747795105,0.6431150436401367,1
0.33991122245788574,11.71790370941162,-11.541850090026855,1.3245245218276989,-11.271920204162598,2.91195011138916,-0.8647139072418216,7.424927711486815,-6.059230327606202,-18.75550651550293,0.2963480483285096,-0.2910198185275803,0.488672662982776,0.7672576672340131,1.0220402479171753,0.8274510542498983,2.8871796766864235,1.6137344837188718,0.0469213277101517,0.7439718246459958,8.516066551208496,-6.823081970214844,-4.149807453155519,-0.1578268110752105,11.681039810180664,-15.236820220947266,0.7087560296058655,1.498005747795105,0.6431150436401367,1
0.34189939498900657,11.65655002593994,-11.52560806274414,1.3197847604751598,-11.23610782623291,3.010521650314331,-0.8709999322891239,7.43197727203369,-6.100509166717527,-18.69061088562012,0.3002431770600265,-0.2881892246290086,0.4883628876456868,0.7670089278535149,1.016160488128662,0.8261721769915981,2.8741427103625696,1.5884239673614504,0.0346302762627602,0.7771056890487668,8.524308204650879,-6.804477691650393,-4.1379475593566895,-0.1880435794591904,11.711963653564451,-15.286388397216797,0.6663157939910889,1.5036795139312744,0.6505923867225647,1
0.3439171314239502,11.63614330291748,-11.520074844360352,1.3181974887847914,-11.223936080932615,3.043301105499268,-0.8730161190032962,7.4616947174072275,-6.079670906066897,-18.68903541564941,0.3015379015862903,-0.287252299488332,0.4882338925060054,0.7669345973119459,1.0141417980194092,0.8257396856891073,2.869787041340964,1.5791817903518683,0.0298896227031947,0.7887383699417111,8.526981353759767,-6.7981038093566895,-4.134284496307373,-0.2215786725282669,11.744742393493652,-15.299537658691404,0.6510699391365051,1.5053609609603882,0.6533977389335632,1
0.3459498882293701,11.615758514404297,-11.514482498168944,1.3166066408157362,-11.21164894104004,3.0760424137115483,-0.8749908804893497,7.550702571868894,-6.105702877044679,-18.788305282592773,0.302830303844812,-0.2863187849252422,0.4880917470369503,0.7668649209258496,1.0120933055877686,0.8253033796893532,2.8654273192035133,1.5697132349014284,0.0251803025603295,0.8005050420761105,8.529620170593263,-6.791636943817139,-4.130777359008788,-0.2549984157085419,11.759209632873535,-15.215486526489258,0.6355700492858887,1.507043957710266,0.6560688018798828,1
0.34797120094298606,11.595396614074708,-11.508830070495604,1.3150122165679945,-11.199247360229492,3.1087448596954346,-0.8769236207008365,7.545030117034911,-6.159089088439942,-18.691452026367188,0.3041204602936249,-0.2853892986104942,0.4879359916314914,0.7667999491001529,1.0100139379501345,0.8248642126666463,2.861063543950216,1.5600169897079468,0.0205000638961793,0.8124036788940426,8.532223701477049,-6.7850728034973145,-4.1274261474609375,-0.2795181274414062,11.80014705657959,-15.22447681427002,0.6198170781135559,1.5087251663208008,0.6586059331893921,1
0.3499143123626638,11.575056648254396,-11.503118515014648,1.3134143352508558,-11.18673610687256,3.141430377960205,-0.8788046240806583,7.4536714553833,-6.085762023925782,-18.84251976013184,0.3054077153464563,-0.2844632352658765,0.4877670841359875,0.766739895155068,1.0079052448272705,0.8244202772723597,2.8566971460925505,1.5500977039337158,0.0157883428037167,0.8240358829498288,8.534797668457031,-6.778410911560059,-4.124261856079103,-0.1696836203336715,11.705113410949709,-15.25577163696289,0.6040630936622621,1.5100910663604736,0.6610088348388672,1
0.3519158363342285,11.554739570617675,-11.497347831726074,1.3118133544921888,-11.174372673034668,3.1736960411071777,-0.8805654644966129,7.497479438781736,-6.125895500183106,-18.843786239624023,0.306692749342488,-0.2835409782208789,0.4875852888693193,0.7666841965558668,1.005767822265625,0.8239730040179651,2.8523274103747767,1.5403246879577643,0.011201516725123,0.8354710340499875,8.537384033203125,-6.772018909454348,-4.1209702491760245,-0.2115151137113571,11.733177185058596,-15.273110389709473,0.5885640382766724,1.5114579200744631,0.6632775068283081,1
0.35392332077025657,11.53444538116455,-11.4915189743042,1.3102092742919935,-11.161904335021973,3.2059662342071533,-0.8822640776634221,7.538478851318357,-6.035487651824952,-18.82056999206543,0.3079750291319854,-0.2826219049284136,0.487390749204872,0.7666332225225445,1.0036021471023555,0.8235204855548308,2.847955052052633,1.5306981801986697,0.0067412550561131,0.8467086553573605,8.539941787719728,-6.765529155731201,-4.1178808212280265,-0.2283848226070404,11.625455856323242,-15.126190185546877,0.5733211636543274,1.5128250122070312,0.6654120087623596,1
0.35594940185547586,11.51417407989502,-11.485630989074709,1.3086022138595592,-11.149332046508787,3.2382402420043945,-0.8838996887207036,7.550467491149901,-6.065426826477053,-18.77116775512696,0.3092547578418597,-0.2817064509485009,0.4871835669531037,0.7665866828591684,1.0014086961746216,0.8230636755572722,2.8435803095446985,1.521214008331299,0.0024077091366053,0.857750833034515,8.542472839355469,-6.758943557739258,-4.114990711212158,-0.2703726291656494,11.654792785644531,-15.143600463867188,0.5583305954933167,1.5141907930374146,0.6674122810363771,1
0.35792088508605957,11.493925666809082,-11.479684829711914,1.306992292404176,-11.136656761169434,3.270517349243164,-0.8854715824127202,7.551692008972168,-6.01368284225464,-18.789270401000977,0.3105317123327035,-0.2807945413244928,0.4869639219083994,0.7665445975008087,0.9991881847381594,0.8226020971881312,2.8392038981067103,1.511873245239258,-0.0017969048349185,0.8685988783836361,8.544977188110353,-6.7522621154785165,-4.112295627593993,-0.2515406906604767,11.5943603515625,-15.076066970825195,0.5435936450958252,1.515556573867798,0.6692783832550049,1
0.35991382598876953,11.493925666809082,-11.479684829711914,1.306992292404176,-11.136656761169434,3.270517349243164,-0.8854715824127202,7.551692008972168,-6.01368284225464,-18.789270401000977,0.3105317123327035,-0.2807945413244928,0.4869639219083994,0.7665445975008087,0.9991881847381594,0.8226020971881312,2.8392038981067103,1.511873245239258,-0.0017969048349185,0.8685988783836361,8.544977188110353,-6.7522621154785165,-4.112295627593993,-0.2515406906604767,11.5943603515625,-15.076066970825195,0.5435936450958252,1.515556573867798,0.6692783832550049,1
0.3619387149810791,11.493925666809082,-11.479684829711914,1.306992292404176,-11.136656761169434,3.270517349243164,-0.8854715824127202,7.551692008972168,-6.01368284225464,-18.789270401000977,0.3105317123327035,-0.2807945413244928,0.4869639219083994,0.7665445975008087,0.9991881847381594,0.8226020971881312,2.8392038981067103,1.511873245239258,-0.0017969048349185,0.8685988783836361,8.544977188110353,-6.7522621154785165,-4.112295627593993,-0.2515406906604767,11.5943603515625,-15.076066970825195,0.5435936450958252,1.515556573867798,0.6692783832550049,1
0.3639092445373606,11.493925666809082,-11.479684829711914,1.306992292404176,-11.136656761169434,3.270517349243164,-0.8854715824127202,7.551692008972168,-6.01368284225464,-18.789270401000977,0.3105317123327035,-0.2807945413244928,0.4869639219083994,0.7665445975008087,0.9991881847381594,0.8226020971881312,2.8392038981067103,1.511873245239258,-0.0017969048349185,0.8685988783836361,8.544977188110353,-6.7522621154785165,-4.112295627593993,-0.2515406906604767,11.5943603515625,-15.076066970825195,0.5435936450958252,1.515556573867798,0.6692783832550049,1
0.3659205436706472,11.493925666809082,-11.479684829711914,1.306992292404176,-11.136656761169434,3.270517349243164,-0.8854715824127202,7.551692008972168,-6.01368284225464,-18.789270401000977,0.3105317123327035,-0.2807945413244928,0.4869639219083994,0.7665445975008087,0.9991881847381594,0.8226020971881312,2.8392038981067103,1.511873245239258,-0.0017969048349185,0.8685988783836361,8.544977188110353,-6.7522621154785165,-4.112295627593993,-0.2515406906604767,11.5943603515625,-15.076066970825195,0.5435936450958252,1.515556573867798,0.6692783832550049,1
0.3679158687591624,11.43332061767578,-11.46149444580078,1.3021461963653578,-11.097978591918944,3.3670716285705566,-0.8899133205413823,7.489216804504392,-6.049586772918702,-18.712034225463867,0.3143433527613989,-0.2780756895927403,0.4862338119644277,0.7664455933298763,0.9923753142356871,0.8211773077594207,2.82607084909548,1.48311722278595,-0.0112384911626576,0.8997215628623959,8.552423477172853,-6.731572151184082,-4.105045795440674,-0.2703095376491546,11.64928913116455,-15.118084907531738,0.5004030466079712,1.5193371772766109,0.6712555885314941,1
0.3698995113372803,11.413166618347168,-11.455313682556152,1.3005256652832045,-11.084877967834473,3.3992037773132324,-0.8912836313247685,7.508311271667478,-6.094421863555907,-18.715879440307614,0.315606012675749,-0.277174652000593,0.4859677864923942,0.766421794799018,0.9900583624839784,0.8206866423236296,2.8216965834247034,1.4732546806335451,-0.0138154476881026,0.9093111157417292,8.554898262023926,-6.724438667297362,-4.102953910827637,-0.2941081821918487,11.694939613342283,-15.126681327819824,0.486430823802948,1.5200737714767456,0.6711099743843079,1
0.37189650535584207,11.393036460876464,-11.449074745178224,1.29890275001526,-11.07167911529541,3.431346654891968,-0.8925822973251347,7.519544601440429,-6.100262641906737,-18.861974716186523,0.3168644322769125,-0.2762767712048563,0.4856909331476507,0.7664022408034921,0.9877206087112428,0.8201888243304656,2.817326132451193,1.4634004831314094,-0.0164845176041125,0.91849011182785,8.557372093200684,-6.717187881469728,-4.101069450378418,-0.2643750905990601,11.661733627319336,-15.150999069213867,0.4727118015289306,1.5204926729202268,0.6709644794464111,1
0.37393856048583984,11.372930145263672,-11.442777633666992,1.2972776889801036,-11.058382987976074,3.4634995460510254,-0.8938086628913884,7.471431732177732,-6.066944122314452,-18.84884452819824,0.3181190562629109,-0.2753813537359583,0.4854033343685908,0.7663869642946702,0.985361635684967,0.8196829001056121,2.8129578272448943,1.4539149999618532,-0.0190363787114619,0.9277349114418026,8.559844970703125,-6.7098236083984375,-4.099380970001222,-0.2433714270591736,11.622027397155762,-15.179512977600098,0.459246426820755,1.521225929260254,0.6708189249038696,1
0.37587690353392844,11.352848625183103,-11.43642234802246,1.2956504821777357,-11.04499053955078,3.495661735534668,-0.8949620127677922,7.547114372253418,-6.030234336853027,-18.69202041625977,0.3193694101789667,-0.2744887022514392,0.4851050847666687,0.7663760101358751,0.9829823374748232,0.8191688696490682,2.8085933367358606,1.4444409608840945,-0.02167522162199,0.9365702271461483,8.562317848205566,-6.702348232269287,-4.097892284393311,-0.2970434129238129,11.63088607788086,-15.104155540466309,0.4460360705852509,1.5216447114944458,0.6706733703613281,1
0.3779134750366211,11.332790946960449,-11.430008888244627,1.2940214872360245,-11.031742095947266,3.527373552322388,-0.8959779739379887,7.493013381958008,-6.041962146759032,-18.805219650268555,0.3206158372387452,-0.2735990028455063,0.4847969468539448,0.7663687042636441,0.9805849790573118,0.8186476866351531,2.804233137761252,1.4351124763488772,-0.0242191217839716,0.9448178410530088,8.564792633056639,-6.69512939453125,-4.09622859954834,-0.2849465012550354,11.58520221710205,-15.136905670166016,0.4333336949348449,1.5217491388320925,0.6703937649726868,1
0.3799166679382395,11.312757110595705,-11.423538208007812,1.2923907041549698,-11.01839828491211,3.5590932369232178,-0.8969197273254399,7.525052070617675,-5.945823192596438,-18.731000900268555,0.3218583776931096,-0.2727115327974891,0.4844790156570575,0.7663652444989741,0.9781695008277892,0.8181179205523894,2.7998765150653284,1.4261547327041628,-0.026639875024557,0.953133940696716,8.567265510559082,-6.687804222106934,-4.094751358032228,-0.2772659957408905,11.522394180297852,-15.071955680847168,0.4208865165710449,1.5221709012985232,0.6701140403747559,1
0.3819551467895508,11.292748069763183,-11.417009353637695,1.2907583713531507,-11.004960060119627,3.5908200740814213,-0.8977866172790532,7.436017036437986,-5.9486045837402335,-18.728530883789062,0.3230969468470959,-0.2718271217061756,0.4841512840700174,0.7663653912960673,0.975736439228058,0.8175810019122527,2.7955246607409885,1.4172068834304812,-0.0291415993124245,0.9610407352447506,8.569735527038574,-6.6803741455078125,-4.09346342086792,-0.2653439044952393,11.477458953857422,-15.104239463806152,0.4086931645870209,1.5222769975662231,0.669834315776825,1
0.38391709327697754,11.27276382446289,-11.410423278808596,1.2891246080398573,-10.991429328918455,3.6225647926330566,-0.8985732793807988,7.489083290100098,-5.9587278366088885,-18.832496643066406,0.3243318131821941,-0.2709453250935908,0.4838142024164026,0.7663689211522471,0.9732868075370787,0.8170364538775847,2.7911770979510706,1.4085001945495603,-0.0317433774471281,0.9687907099723811,8.572198867797853,-6.672842502593994,-4.092371463775635,-0.3202337622642517,11.48855686187744,-15.029088973999023,0.3967544436454773,1.5223829746246338,0.6696889400482178,1
0.38591527938844195,11.212959861755373,-11.390317916870115,1.2842160463333143,-10.950277328491213,3.717808485031128,-0.9004845619201663,7.522597312927245,-5.926886558532716,-19.07170295715332,0.3280137848984442,-0.2683153558437526,0.4827478189100065,0.76639961513082,0.9658422470092772,0.8153556028949187,2.7781627813922336,1.3834112882614138,-0.0391502566635607,0.9909905195236204,8.579577445983888,-6.649661540985107,-4.090139865875243,-0.2878372967243194,11.488126754760742,-15.184972763061523,0.3624624609947205,1.5226994752883911,0.6689845323562622,1
0.3879354000091624,11.1930757522583,-11.383500099182127,1.2825778722763077,-10.936376571655272,3.7495725154876713,-0.9009638428688052,7.541250705718991,-6.001191139221192,-18.99075126647949,0.3292339103407276,-0.2674436738296339,0.4823745085508292,0.766416170961057,0.9633303284645082,0.8147795836078093,2.7738340536700656,1.3754606246948244,-0.0416452698409556,0.9980589151382444,8.582035064697267,-6.641748428344728,-4.089748859405519,-0.3195992708206177,11.531767845153809,-15.19826602935791,0.3515400886535644,1.5228042602539062,0.6688390374183655,1
0.3899173736572408,11.173216438293457,-11.376625061035154,1.2809389829635631,-10.922383308410645,3.781328439712525,-0.9013698101043705,7.519397258758544,-5.998741626739505,-19.128360748291016,0.3304505034102698,-0.2665745330771473,0.4819926953893275,0.7664355972304073,0.9608045816421508,0.8141959349261687,2.7695105711566383,1.3676470518112187,-0.0439865216612814,1.0049461126327517,8.584492683410645,-6.6337432861328125,-4.089511871337892,-0.2984480559825897,11.495656967163086,-15.225119590759276,0.3408717811107635,1.5229103565216064,0.6685595512390137,1
0.39191102981568093,11.153382873535156,-11.3696928024292,1.2792990207672132,-10.90824031829834,3.8124821186065687,-0.9019569754600528,7.526266574859616,-5.99441957473755,-18.88250732421875,0.3316587942586807,-0.2657042381895321,0.4816044227060121,0.7664599676623741,0.9582735300064088,0.8135932127582001,2.7652025858508504,1.3572261333465578,-0.0397996455430983,1.0110217332839964,8.587037086486816,-6.625538349151611,-4.088775634765625,-0.3194194734096527,11.536696434020994,-15.131632804870604,0.3304565250873565,1.5230120420455933,0.6611785292625427,1
0.39391064643859863,11.133576011657716,-11.362704277038574,1.2776581048965467,-10.894001960754396,3.843569040298462,-0.9024958610534672,7.490361213684081,-6.050424575805665,-18.65163803100586,0.3328571682970247,-0.2648344818034007,0.481210362244373,0.7664890018975156,0.9557414054870604,0.8129733244525355,2.7609167734729207,1.3454215526580813,-0.0355380214750765,1.0151870250701902,8.589657783508299,-6.617124080657959,-4.0881567001342765,-0.3743350505828857,11.541178703308104,-14.9551362991333,0.3202956914901733,1.520907640457153,0.6529860496520996,1
0.3959193229675222,11.1137939453125,-11.355660438537598,1.2760164737701432,-10.879900932312012,3.874195337295532,-0.9029033780097964,7.522861957550048,-5.997660160064697,-18.745344161987305,0.3340454536640125,-0.2639656573295455,0.4808112527894173,0.7665222148301093,0.9532108902931212,0.8123372236834929,2.7566550413714808,1.3333685398101809,-0.0317872688174246,1.0184985399246214,8.592333793640138,-6.608852863311768,-4.087359428405762,-0.3691772222518921,11.47267723083496,-14.786920547485352,0.3103889226913452,1.5178568363189695,0.6450620293617249,1
0.39790797233581543,11.094037628173828,-11.348560333251951,1.2743742465972914,-10.865715026855469,3.9048454761505127,-0.9032223224639896,7.5258631706237775,-5.893952369689942,-18.566511154174805,0.3352237073147507,-0.263098144812647,0.4804073584817655,0.7665593272323222,0.950682997703552,0.8116858641253875,2.752418104802267,1.3213236331939695,-0.0281341094523667,1.0210112333297727,8.595071792602539,-6.600381851196289,-4.086792945861816,-0.3751509189605713,11.407896041870115,-14.725578308105469,0.3009902238845825,1.5141750574111938,0.6371381282806396,1
0.39992690086365457,11.074308013916015,-11.341404914855955,1.2727316617965712,-10.851445198059082,3.935530424118042,-0.9034473896026616,7.589646339416503,-5.829892158508304,-18.52406311035156,0.3363916914273496,-0.2622326978488872,0.4799990404785898,0.7666000021244289,0.9481593966484068,0.8110206762896937,2.7482078711139124,1.3092664480209353,-0.0250069536268709,1.0229212045669551,8.597859382629395,-6.591719150543213,-4.0864763259887695,-0.3906057476997376,11.336776733398438,-14.668992042541506,0.2918468713760376,1.5098658800125122,0.6296167373657227,1
0.40188074111938477,11.054604148864746,-11.334193229675291,1.2710888385772718,-10.837091445922852,3.966238260269165,-0.9035832285881048,7.559869766235352,-5.948222160339358,-18.676240921020508,0.3375499979934631,-0.2613693483204751,0.4795867652459653,0.7666437224774325,0.9456411004066472,0.8103426138507301,2.7440236250506804,1.297319412231445,-0.0221831463277338,1.0244541168212888,8.60069465637207,-6.5828704833984375,-4.0863990783691415,-0.4079014956951141,11.406662940979006,-14.775477409362791,0.2829588353633881,1.5052404403686523,0.6223637461662292,1
0.4039113521575999,10.99565086364746,-11.312223434448242,1.2661604881286634,-10.793533325195312,4.058517456054688,-0.9034429192543034,7.608385086059568,-5.873482227325442,-18.696224212646484,0.3409684265441206,-0.2587931338055908,0.4783249785665127,0.7667932321522234,0.9381139278411864,0.8082349936114714,2.731623474751608,1.263509035110474,-0.0155984843149779,1.0291099548339842,8.609450340270996,-6.555295944213867,-4.087583065032959,-0.4145427346229553,11.380078315734863,-14.84677791595459,0.2573058903217316,1.4919928312301636,0.6030199527740479,1
0.40593504905701394,10.976052856445312,-11.30478858947754,1.2645182609558117,-10.778849601745604,4.0893235206604,-0.90321433544159,7.499431610107423,-5.922489166259768,-18.766016006469727,0.3420904995229746,-0.257938872327381,0.4778959475812866,0.7668488061958398,0.9356126785278324,0.8075092474566858,2.7275374571429647,1.2530453205108647,-0.0138164162635801,1.0307756662368772,8.612443923950195,-6.545783519744872,-4.088427543640137,-0.3967462480068207,11.34702491760254,-14.872697830200195,0.2491780519485473,1.487998604774475,0.5972427725791931,1
0.40798234939575195,10.956481552124025,-11.297297477722168,1.2628766298294078,-10.76408576965332,4.120161056518556,-0.9028901457786564,7.595879554748534,-5.955717563629151,-18.97407531738281,0.3432045069616715,-0.2570869343059822,0.4774631467147819,0.7669067206248528,0.9331162571907043,0.8067730108844202,2.7234743277179168,1.24292528629303,-0.0123539762571452,1.0323110818862913,8.615467071533201,-6.536125659942628,-4.0894975662231445,-0.4399001896381378,11.388402938842772,-14.89206600189209,0.2413035184144973,1.4840024709701538,0.5918681025505066,1
0.409917354583726,10.93693790435791,-11.289750099182127,1.2612357139587416,-10.74924087524414,4.1510186195373535,-0.902475237846375,7.634642124176023,-5.9950590133667,-18.987178802490234,0.3443107252340679,-0.2562376889518879,0.4770264072262307,0.7669668689442981,0.9306240677833556,0.8060272375689901,2.7194336096393035,1.232923984527588,-0.0111824367195366,1.0334645509719846,8.61851692199707,-6.5263261795043945,-4.090783596038818,-0.4830940365791321,11.430118560791016,-14.9116849899292,0.2336847782135009,1.47969388961792,0.5867618322372437,1
0.4119420051574707,10.917420959472656,-11.282146453857422,1.2595957517623912,-10.734315872192385,4.181895732879639,-0.9019693732261664,7.613038539886474,-5.990263462066651,-19.116687774658203,0.3454090866488813,-0.2553909171982357,0.4765857299160946,0.7670293894717286,0.9281361103057858,0.8052714506732386,2.7154153029071253,1.2233918905258183,-0.0101058231666682,1.034721612930298,8.621596336364746,-6.516393661499023,-4.092278003692627,-0.44676873087883,11.420666694641112,-15.02983283996582,0.2263211756944656,1.475702881813049,0.5819238424301147,1
0.41388940811156516,10.89793071746826,-11.274487495422363,1.2579569816589369,-10.719534873962402,4.2122955322265625,-0.901347696781159,7.531503677368161,-5.944418907165527,-18.89263343811035,0.3465002318931905,-0.2545467995523635,0.4761418187965479,0.7670935304959425,0.9256540536880492,0.8045070807086394,2.711418930684225,1.2139742374420168,-0.0093189924955366,1.0355937480926511,8.624675750732424,-6.506672382354736,-4.0935540199279785,-0.4656645357608795,11.352357864379885,-14.973358154296877,0.2192088365554809,1.471394419670105,0.5773541927337646,1
0.4159359931945801,10.878468132019044,-11.266773223876951,1.2563195228576671,-10.70467472076416,4.242725372314453,-0.9006295204162603,7.646009922027588,-5.891010284423827,-19.12190818786621,0.3475843749474346,-0.2537055433038673,0.4756943362742484,0.7671593693789399,0.9231767654418944,0.8037346045123503,2.707443777714865,1.20490837097168,-0.0088422251865266,1.0363317728042605,8.627768516540527,-6.496830463409424,-4.095047473907472,-0.485215276479721,11.284374237060549,-14.91693115234375,0.212352454662323,1.4670875072479248,0.5731870532035828,1
0.4179189205169749,10.859032249450683,-11.259003639221191,1.2546834945678722,-10.68973445892334,4.273150444030762,-0.8998302221298223,7.580666065216062,-5.830121040344237,-18.883581161499023,0.3486614379036378,-0.2528671771882758,0.4752432800359934,0.7672269658975962,0.9207043051719664,0.8029540220843718,2.703490082417624,1.195953726768494,-0.0086274184286593,1.0370867252349851,8.63087272644043,-6.486873149871826,-4.096720218658446,-0.4967673122882843,11.223359107971191,-14.855496406555176,0.2054956555366516,1.4627807140350342,0.5692882537841797,1
0.419888734817512,10.859032249450683,-11.259003639221191,1.2546834945678722,-10.68973445892334,4.273150444030762,-0.8998302221298223,7.580666065216062,-5.830121040344237,-18.883581161499023,0.3486614379036378,-0.2528671771882758,0.4752432800359934,0.7672269658975962,0.9207043051719664,0.8029540220843718,2.703490082417624,1.195953726768494,-0.0086274184286593,1.0370867252349851,8.63087272644043,-6.486873149871826,-4.096720218658446,-0.4967673122882843,11.223359107971191,-14.855496406555176,0.2054956555366516,1.4627807140350342,0.5692882537841797,1
0.4219207763672017,10.800888633728029,-11.235363006591797,1.24978542327881,-10.64443302154541,4.364326477050781,-0.8969770073890692,7.617429256439206,-5.7989869117736825,-19.03425025939941,0.3518466891043043,-0.2503810585712646,0.4738727525191282,0.7674358913257948,0.913333773612976,0.8005855719195769,2.691781822835104,1.1647601127624514,-0.0119563955813645,1.0333799123764036,8.640129089355469,-6.4563398361206055,-4.102970600128174,-0.491407185792923,11.217645645141602,-14.916776657104492,0.1844154000282288,1.4416592121124268,0.5589339137077332,1
0.4238858222961426,10.781562423706056,-11.227373123168944,1.2481565475463878,-10.629175186157228,4.39469575881958,-0.8958691954612737,7.613360404968263,-5.777534484863282,-19.06786727905273,0.3528923138549538,-0.249564650674426,0.4734108848989495,0.7675067648008336,0.9108958840370178,0.7997921148883269,2.6879351774798788,1.1535878181457522,-0.0140802441164849,1.030911326408386,8.643162727355957,-6.445952415466309,-4.105528354644775,-0.5050390362739563,11.157740592956545,-14.855326652526855,0.1773039251565933,1.4329375028610232,0.5559744238853455,1
0.4258861541748118,10.762264823913574,-11.219327926635742,1.246529817581178,-10.613840103149414,4.425047397613525,-0.8946859240531927,7.715615272521973,-5.900175094604492,-19.096040725708008,0.3539298780318301,-0.2487553448458077,0.47294655410426,0.7675779939575674,0.9084676504135129,0.7989986578570769,2.684117380772726,1.1423039436340334,-0.0164360217750071,1.028198957443237,8.646164894104004,-6.435465335845947,-4.108328342437743,-0.6015217304229736,11.28354263305664,-14.866416931152346,0.1701931357383728,1.4239009618759155,0.5531490445137024,1
0.42788147926330566,10.74299488067627,-11.211227416992188,1.2449054718017591,-10.598428726196287,4.455392837524414,-0.8934220075607305,7.656358242034911,-5.8772521018981925,-19.054473876953125,0.3549591122336652,-0.2479531717709265,0.4724800503240172,0.7676495654247711,0.9060500264167788,0.7982052008258269,2.6803293863879603,1.1307927370071411,-0.0192399844527243,1.0250034332275388,8.649124145507812,-6.424883365631104,-4.111393928527832,-0.5950238704681396,11.24670124053955,-14.897117614746096,0.1630818992853164,1.4142340421676636,0.5505921244621277,1
0.4298717975616455,10.70453987121582,-11.19486141204834,1.2416641712188734,-10.567575454711914,4.515605449676514,-0.8906430602073675,7.596341133117675,-5.798153877258304,-19.10516929626465,0.3569938144381797,-0.2463711336982439,0.4715406713033236,0.7677929904863233,0.9012456536293032,0.7966216246234343,2.6728404203998006,1.1087319850921633,-0.0250254347920416,1.0187919139862056,8.654891014099121,-6.403743267059326,-4.117899417877196,-0.556932806968689,11.193402290344238,-14.942641258239744,0.1493708789348602,1.3955336809158323,0.5460147261619568,1
0.4319174289703369,10.68535385131836,-11.186596870422363,1.2400475740432757,-10.55213451385498,4.545472145080566,-0.8891283273696905,7.618077278137206,-5.7573866844177255,-19.096120834350582,0.3579999249919407,-0.2455905946351512,0.4710679600904484,0.7678647605592676,0.8988584280014036,0.7958310286151331,2.6691373030291947,1.098180413246155,-0.0280059780925511,1.0157768726348877,8.657697677612305,-6.39319372177124,-4.121326446533203,-0.564559280872345,11.1414794921875,-14.876117706298828,0.1427680850028991,1.3864998817443848,0.5439943075180054,1
